t_s,gyro_x_radps,gyro_y_radps,gyro_z_radps,accel_x_mps2,accel_y_mps2,accel_z_mps2,ins_pos_ecef_x_m,ins_pos_ecef_y_m,ins_pos_ecef_z_m,ins_vel_ecef_x_mps,ins_vel_ecef_y_mps,ins_vel_ecef_z_mps,ins_quat_w,ins_quat_x,ins_quat_y,ins_quat_z
0.0,3.1243237328031414e-06,0.0005764262417120899,-0.007470729043741357,-48.92699819858172,55.54157514701634,5.139447728595985,-1653639.850072476,5089380.142985015,3585590.067023642,-258.4057955714953,-5260.056020287632,7298.290012616031,0.9945218953682734,0.0,0.0,0.10452846326765353
0.005,-8.140278761278307e-06,0.0005690396589012851,-0.007490528523489196,-48.92957816773409,55.55332124040441,5.141057950233044,-1653641.141316311,5089353.842691498,3585626.55896721,-258.0917383376997,-5260.0613867730635,7298.4874146065795,0.9945238474533502,-1.4286435217282872e-07,1.4339877479313465e-06,0.10450988874029415
0.01,3.712726996624831e-06,0.0005690287111347509,-0.007450584044032974,-48.941242113245494,55.536480950451555,5.144774497669278,-1653642.4309897975,5089327.54237109,3585663.051897937,-257.77765626571056,-5260.066776284561,7298.684876109547,0.9945258043616798,-3.118061374382522e-07,2.846667000512559e-06,0.10449126494857433
0.015,1.0482587168403279e-05,0.0005563056814177228,-0.007459474178971519,-48.95634262095557,55.53979395080186,5.140762284480462,-1653643.7190928478,5089301.242023908,3585699.5458158255,-257.46356385555737,-5260.072096638221,7298.882279292742,0.9945277504864821,-4.5127447824355546e-07,4.262415402555206e-06,0.10447274043464991
0.02,-4.686433850618169e-06,0.0005685484377879632,-0.007453059492589345,-48.94359222448406,55.52915141240888,5.142385925757422,-1653645.0056252545,5089274.941650123,3585736.040720727,-257.1493988583675,-5260.077417099993,7299.079681263407,0.9945296985859428,-5.705878546546794e-07,5.648298442382168e-06,0.10445419378045663
0.025,-7.056353676319177e-06,0.0005555423533053793,-0.0074669956316762934,-48.95996931190613,55.538213355489056,5.140007033138719,-1653646.2905870483,5089248.641249727,3585772.5366125926,-256.835318628741,-5260.082741129672,7299.2770651895535,0.9945316446625659,-7.308132631520149e-07,7.060659781738994e-06,0.10443566303894862
0.03,7.653445533096204e-07,0.0005740267162349756,-0.007479850508027409,-48.9539156194256,55.53388879505094,5.140777279981637,-1653647.5739782238,5089222.340822701,3585809.0334914424,-256.5211516547139,-5260.088069317512,7299.474474682983,0.9945335940301018,-8.935355704048528e-07,8.440064926317099e-06,0.10441709761114626
0.035,-7.174980248251089e-06,0.0005904611380097788,-0.007476643219395439,-48.96299296052723,55.52391386959233,5.135764291529535,-1653648.85579867,5089196.040369015,3585845.531357338,-256.20702682408796,-5260.093405049825,7299.671883591091,0.9945355464037865,-1.0416360032752187e-06,9.867470136526512e-06,0.10439850018496391
0.04,-1.121303524348812e-05,0.0005840023053365188,-0.007483751669286374,-48.96589748361009,55.52367086176906,5.1459315076557965,-1653650.1360484357,5089169.739888686,3585882.0302101467,-255.89287943571094,-5260.098727002784,7299.869239840905,0.9945374975902309,-1.2137680172846626e-06,1.133366449821419e-05,0.10437991069662979
0.045,2.7419041873366844e-05,0.0005671891001410262,-0.00747200852128978,-48.97611155644454,55.51577886015305,5.140663503717799,-1653651.414727481,5089143.4393818425,3585918.5300498228,-255.57873870607546,-5260.104010253051,7300.066630653979,0.994539450281852,-1.3942547941110833e-06,1.2782746226584627e-05,0.10436130349765213
0.05,2.790432900766158e-06,0.0005785157722729909,-0.007488503920331782,-48.979735159729245,55.516482494260494,5.139256212217393,-1653652.6918357434,5089117.138848609,3585955.0308763385,-255.2645661880156,-5260.109283142633,7300.263975570822,0.9945413995606734,-1.474301763304962e-06,1.4200103736575907e-05,0.1043427254583686
0.055,1.4395252576439388e-06,0.0005515773010627697,-0.007492893507212031,-48.978406014669424,55.50726790534692,5.1371221321643725,-1653653.9673731101,5089090.838288992,3585991.5326895923,-254.95038054950305,-5260.114563611148,7300.461325912059,0.9945433527920914,-1.618539385259506e-06,1.563919875119778e-05,0.10432410636982009
0.06,5.794007734387312e-06,0.0005621567130432197,-0.007495389656502555,-48.9943542540751,55.502449272906595,5.135767448193223,-1653655.2413396146,5089064.537702978,3586028.0354895163,-254.63622118834925,-5260.119842160778,7300.658643700054,0.9945453068186432,-1.7591101889695579e-06,1.7010962718272985e-05,0.10430547633055341
0.065,-1.0587752463416295e-06,0.0005628163678350912,-0.007484118264297357,-48.99441498035198,55.502658237292835,5.131663805929104,-1653656.513735177,5089038.237090647,3586064.5392759605,-254.32200376612718,-5260.125090125887,7300.855934066564,0.9945472611446426,-1.8916129994540167e-06,1.8410166420622212e-05,0.1042868400479063
0.07,-1.0653883559119167e-05,0.0005818892194024597,-0.0074694487520199975,-48.99620413284998,55.497825741775046,5.138644956284553,-1653657.784559653,5089011.936452015,3586101.044048854,-254.00778661556225,-5260.1303625795235,7301.053223389959,0.9945492121812769,-2.0413258151449125e-06,1.980922367674341e-05,0.1042682317536326
0.075,-1.3685095368706688e-05,0.0005699239889654322,-0.0074804688249423025,-49.003502627968494,55.486586200285316,5.144808138035455,-1653659.0538130829,5088985.635787107,3586137.5498082144,-253.69358542910282,-5260.135600752641,7301.250520715859,0.9945511590434849,-2.219866653440189e-06,2.12532020620714e-05,0.1042496598969726
0.08,4.276182884054242e-06,0.0005544157386599157,-0.007481779941887145,-49.00654680311725,55.48364761523588,5.12968175838661,-1653660.321495512,5088959.335096151,3586174.056553999,-253.3793862417977,-5260.140781866308,7301.447793030128,0.9945531084290301,-2.402826386522819e-06,2.2666640287278e-05,0.10423106060385216
0.085,9.954693534063168e-06,0.0005740821951344588,-0.007476082353286696,-49.014562782942,55.478743538060634,5.133156028224285,-1653661.5876068918,5088933.034379152,3586210.5642860266,-253.06516560558399,-5260.146017585997,7301.645018128546,0.9945550578073543,-2.5370864768197406e-06,2.4046199357973512e-05,0.10421245801320296
0.09,-1.187260359836139e-05,0.0005499635904438491,-0.007490959359607414,-49.0165512403277,55.483024011774674,5.1441816983183,-1653662.8521471275,5088906.733636058,3586247.0730041615,-252.7509287116532,-5260.151219838922,7301.842235780044,0.9945570053504665,-2.6623509694189883e-06,2.5476136319621445e-05,0.10419386955186241
0.095,-1.1535457838331043e-06,0.0005569101838562662,-0.007449229246632016,-49.011857886046904,55.475565342677115,5.136021087451198,-1653664.1151161878,5088880.432867028,3586283.582708525,-252.43669538415688,-5260.156392210756,7302.03950953354,0.9945589564201222,-2.8356051099018896e-06,2.6840419178774676e-05,0.10417524406531971
0.1,2.2826591325179345e-05,0.0005719120700546381,-0.007491269671819633,-49.02190665067206,55.470894807862734,5.136618968696781,-1653665.3765141573,5088854.132072054,3586320.093399158,-252.12249241410424,-5260.161597405983,7302.236743864873,0.9945608962725019,-2.9840137695299165e-06,2.8224765967238082e-05,0.1041567222991202
0.105,2.3688580403885317e-05,0.000589705637174336,-0.007462027113749622,-49.02339371123632,55.46156514572079,5.1320962520196405,-1653666.6363410382,5088827.831251118,3586356.605075923,-251.80825994987467,-5260.1667767811105,7302.4339618696795,0.9945628467221175,-3.0767074961633645e-06,2.9652657386836454e-05,0.1041380959651737
0.11,2.085654520274182e-05,0.0005616547464151908,-0.007471633530625471,-49.027987208244646,55.457498090286144,5.140825255268088,-1653667.894596784,5088801.530404283,3586393.1177386716,-251.49403830278249,-5260.171957559802,7302.631137767836,0.9945647892076807,-3.171888268635885e-06,3.1125015487610534e-05,0.10411954230332746
0.115,-3.1588769039463735e-06,0.0005571779484329233,-0.007468010123236314,-49.02634121582164,55.448222307747315,5.132343085392748,-1653669.1512814318,5088775.229531656,3586429.6313873343,-251.17982090615533,-5260.177093049074,7302.82832726329,0.9945667338473131,-3.2668097789639107e-06,3.252689025514188e-05,0.10410096471991648
0.12,1.2064987898893361e-05,0.0005446610233503913,-0.0074868809255205235,-49.033282419929144,55.444089649729555,5.136502782950423,-1653670.406395042,5088748.928633293,3586466.1460218187,-250.8656231440907,-5260.182252123138,7303.025466455639,0.994568677195322,-3.4202782458384943e-06,3.3911383783468493e-05,0.10408239611128818
0.125,2.5148390415084268e-05,0.000550878180432225,-0.007476001366416022,-49.03952647085478,55.43309583104005,5.138589700275868,-1653671.6599376332,5088722.6277092155,3586502.6616419954,-250.55141337291073,-5260.187378995865,7303.222604156093,0.994570625105377,-3.5326383847647778e-06,3.526871612528529e-05,0.1040637805441348
0.13,5.868474122182711e-06,0.0005532890615923232,-0.007476215543053749,-49.03340570379338,55.43679042136659,5.1331606169642425,-1653672.9119091784,5088696.326759598,3586539.178247774,-250.23720462273806,-5260.192467636842,7303.419707368646,0.9945725698347859,-3.614084095811026e-06,3.664491082611465e-05,0.10404519199039822
0.135,-2.5361711895783824e-06,0.000571670984056557,-0.0074800554680441046,-49.05201360061807,55.41774070592431,5.133490298018701,-1653674.162309729,5088670.025784413,3586575.6958391056,-249.92301570018446,-5260.197606656589,7303.6168252522775,0.994574514270183,-3.744095116429285e-06,3.802208504633388e-05,0.10402660286932648
0.14,2.725851170202831e-06,0.0005704606046461122,-0.0074675115304378824,-49.05001717235849,55.420923536072834,5.1301043384474205,-1653675.4111392307,5088643.72478372,3586612.21441582,-249.60878496215346,-5260.202670478864,7303.813860451232,0.9945764593528031,-3.899784638170389e-06,3.944277892950927e-05,0.104008004164588
0.145,2.0046999017821104e-06,0.000592218734555008,-0.007463459082907181,-49.05053876402877,55.42188807955734,5.135637392488279,-1653676.658397591,5088617.423757627,3586648.733977747,-249.29455915555147,-5260.207766969726,7304.010910422722,0.9945784008246761,-4.0420744898398255e-06,4.086183161506858e-05,0.10398943661258297
0.15,7.401227979936698e-06,0.000567186578333883,-0.007451812541688085,-49.05532578300496,55.4069188319638,5.132559623998928,-1653677.9040848452,5088591.122706083,3586685.2545249956,-248.98034249416838,-5260.212850695798,7304.207988936284,0.9945803408922426,-4.191813568984227e-06,4.23347972620945e-05,0.10397087910018084
0.155,5.1376695975618875e-06,0.0005834582664826359,-0.007475806791251978,-49.052221767062946,55.39957984211771,5.136154959114154,-1653679.1482010365,5088564.82162918,3586721.776057477,-248.66613400881488,-5260.217910421368,7304.405003649362,0.9945822775874534,-4.321626673964741e-06,4.3746924494622604e-05,0.10395235050966319
0.16,-1.3299786063795024e-05,0.0005753630492904034,-0.007473069091470742,-49.059067656886626,55.38995511214709,5.128674674372461,-1653680.3907462803,5088538.52052702,3586758.2985750134,-248.35196357652507,-5260.222953525951,7304.602010899074,0.9945842201681564,-4.4612993398165256e-06,4.5198922028702164e-05,0.10393376222216975
0.165,2.1945238064037302e-05,0.0005611995123359904,-0.007473210971062904,-49.066378499156116,55.39161500474768,5.127675443552952,-1653681.631720631,5088512.219399641,3586794.822077445,-248.0377766945974,-5260.227997952851,7304.798961960882,0.9945861616888532,-4.644712284959053e-06,4.662600045391186e-05,0.10391518070752383
0.17,-7.424765371804434e-06,0.0005642260317234483,-0.007469399332323001,-49.06452753090864,55.37580710683216,5.12876507100462,-1653682.87112397,5088485.9182470385,3586831.346564651,-247.72355893904674,-5260.233042974372,7304.995920304286,0.9945881028992997,-4.736810195591977e-06,4.802701794909711e-05,0.1038965987996738
0.17500000000000002,-1.1840331177128571e-05,0.0005610677906180516,-0.007481554989123467,-49.08230452935891,55.38534353365488,5.129682316668893,-1653684.1089563323,5088459.617069283,3586867.8720365237,-247.4093859171593,-5260.23805935017,7305.192828787942,0.9945900427700347,-4.902721399581342e-06,4.942793221434965e-05,0.10387802633638772
0.18,-4.279573136938828e-06,0.0005564306272774376,-0.007471598877635357,-49.066488065915856,55.370070549222774,5.128780045971592,-1653685.3452176051,5088433.315866471,3586904.398493028,-247.09512324634233,-5260.24306516652,7305.38977288904,0.9945919854485237,-5.0787931186655386e-06,5.081984672471502e-05,0.10385942361246116
0.185,-7.836958505064537e-06,0.0005818042653278443,-0.007472670523398214,-49.07289145532672,55.35812803499476,5.128008178895921,-1653686.5799078238,5088407.014638608,3586940.9259341494,-246.7809642483925,-5260.248080246875,7305.586675673907,0.9945939251931859,-5.234859864881791e-06,5.220219426984653e-05,0.10384084560681651
0.19,-2.196234051097525e-06,0.0005701915034518277,-0.007454407309314706,-49.0784332862028,55.35884327374505,5.13006789310003,-1653687.8130272434,5088380.713385743,3586977.454359669,-246.46680357964138,-5260.253065853978,7305.783531979398,0.9945958648636083,-5.406359184026473e-06,5.364670944349982e-05,0.10382226490022693
0.195,6.068674291292925e-06,0.000584659890219944,-0.007489536067687363,-49.068677576737244,55.347039718258905,5.135871247647013,-1653689.0445758165,5088354.412107974,3587013.983769503,-246.15262559785268,-5260.258041476497,7305.980401815623,0.9945977994470094,-5.560816290680776e-06,5.5063813914838926e-05,0.1038037295679695
0.2,1.216366498616157e-06,0.0005730822957520645,-0.007458464901802769,-49.07466875942129,55.341425798503145,5.1334541835251635,-1653690.2745536964,5088328.110805383,3587050.5141636524,-245.83852640359314,-5260.262995296275,7306.177257938945,0.9945997427956444,-5.698482263338767e-06,5.651903826336346e-05,0.10378510685047095
0.20500000000000002,-2.2980073869978156e-06,0.0005603648182478933,-0.007425170987016166,-49.08416568056265,55.32617468040256,5.1258115487764435,-1653691.5029610468,5088301.809478041,3587087.04554202,-245.524413732211,-5260.267941404799,7306.374089053268,0.9946016777347066,-5.845205149221488e-06,5.794421636027916e-05,0.10376656135580495
0.21,2.3552045563328884e-05,0.0005443465413376297,-0.007466072955263539,-49.08296304624916,55.321858525639804,5.127863845850495,-1653692.729797788,5088275.508126009,3587123.5779043385,-245.21028277424156,-5260.27287115576,7306.570838412949,0.9946036036923133,-5.9973625932263404e-06,5.933686117616038e-05,0.10374809861116749
0.215,-3.7412139035400195e-06,0.000554297575604512,-0.0074609545816070825,-49.085177004558766,55.32597013371643,5.129471706402067,-1653693.9550639295,5088249.206749348,3587160.111250401,-244.89617381310958,-5260.277793325274,7306.7675865762885,0.9946055399149225,-6.081095048650181e-06,6.069638050286694e-05,0.10372953412367779
0.22,-9.636891115782293e-07,0.0005821167513269381,-0.007456998413014056,-49.091723730654806,55.316195092128964,5.128434420087434,-1653695.1787595032,5088222.90534806,3587196.6455802764,-244.58205563242052,-5260.2827218953735,7306.964363617828,0.9946074744601408,-6.2352723333165275e-06,6.207356547794102e-05,0.10371098233077594
0.225,1.0714384841155286e-05,0.0005599134255775898,-0.007454358867070263,-49.086277687693794,55.30053854629272,5.13026441985453,-1653696.4008844693,5088196.603922188,3587233.180893941,-244.26793080916158,-5260.287626675862,7307.161102096497,0.9946094076274795,-6.389755519676457e-06,6.352064354279922e-05,0.10369244033782406
0.23,-3.904497772491689e-06,0.0005717057122992526,-0.007463203867609932,-49.09611860692158,55.29750280654845,5.116939088117021,-1653697.6214389647,5088170.302471853,3587269.717191187,-243.95386742867052,-5260.292507616546,7307.35779644135,0.9946113397667036,-6.50944468652635e-06,6.49155398559168e-05,0.1036739048704292
0.23500000000000001,-9.376519244308455e-06,0.0005740719665314845,-0.007479320504924048,-49.101459194078494,55.28510078513569,5.122662773255939,-1653698.8404230198,5088144.000997029,3587306.2544717845,-243.63975460643297,-5260.297421775289,7307.554442391124,0.9946132738484393,-6.668541933627134e-06,6.633596886601545e-05,0.10365534737561455
0.24,-1.1164930102128081e-05,0.0005711803071407938,-0.007451342934439866,-49.107813917542856,55.2797146371903,5.117690246995549,-1653700.0578365414,5088117.6994977705,3587342.792735538,-243.32565399862898,-5260.302281964013,7307.751059074509,0.9946152117570953,-6.841861401403368e-06,6.776086334310399e-05,0.10363674977073906
0.245,3.5338658645397963e-06,0.0005572688676341311,-0.007470136188940986,-49.09606637533251,55.26801991386608,5.1201847022505405,-1653701.2736795128,5088091.397974204,3587379.331982296,-243.01153455736477,-5260.307144299506,7307.9476441937395,0.994617142068965,-7.018873873480355e-06,6.917810469123434e-05,0.10361822169719762
0.25,-2.4883421175102e-05,0.0005669425029960329,-0.0074701720297314245,-49.10537592237953,55.262959062466514,5.1147078976205975,-1653702.487952095,5088065.096426338,3587415.8722119275,-242.69749834856626,-5260.312002214689,7308.144208461794,0.9946190769038085,-7.155736710661938e-06,7.056456195263049e-05,0.10359964685487136
0.255,1.4945159332226158e-05,0.0005595115199762066,-0.007459524650813565,-49.106695282968275,55.25260352268095,5.120076547165398,-1653703.700654413,5088038.794854186,3587452.4134242954,-242.3834288298128,-5260.316858907487,7308.340738537273,0.9946210113968602,-7.365765954179222e-06,7.196771309206428e-05,0.103581071891928
0.26,1.5937199763803494e-05,0.0005761014479226512,-0.007462243317517652,-49.10563949243537,55.26124424325158,5.112394760261687,-1653704.9117864484,5088012.493257848,3587488.9556192667,-242.069385311252,-5260.321676020894,7308.537250079952,0.9946229427864388,-7.474833148911326e-06,7.336270059039305e-05,0.10356252336094225
0.265,3.84689102454887e-06,0.0005819046503807952,-0.007466965077688032,-49.10305142672915,55.23138239965748,5.117438082364999,-1653706.1213482292,5087986.191637275,3587525.498796856,-241.75532702763556,-5260.326553224294,7308.733785688724,0.9946248745288327,-7.585729311232821e-06,7.479919666515455e-05,0.10354396803310502
0.27,1.3922050500112492e-05,0.0005570955477121464,-0.0074696760310089625,-49.11274233830138,55.238643106946085,5.108858713084836,-1653707.3293399154,5087959.8899925025,3587562.0429568854,-241.44134742260408,-5260.331355565887,7308.930226089311,0.9946268071437218,-7.728191874905505e-06,7.624699295160337e-05,0.10352540093019187
0.275,7.642340000655847e-06,0.0005415723655121255,-0.00747127045023634,-49.11077078036185,55.227330748394216,5.1144133595919,-1653708.5357615498,5087933.588323624,3587598.588099134,-241.12730633784122,-5260.33619624348,7309.1266732951,0.9946287401164222,-7.839181462624778e-06,7.763570724981607e-05,0.10350682704857155
0.28,7.456735325669133e-06,0.0005701090512662915,-0.007467487258538095,-49.10835095723153,55.21285756469276,5.118272810385927,-1653709.7406130855,5087907.28663063,3587635.134223571,-240.8133079663889,-5260.341001162619,7309.323101431534,0.9946306731557923,-7.961769420067648e-06,7.898419699940133e-05,0.10348824916753786
0.28500000000000003,1.2705604553052518e-05,0.0005470076595690237,-0.007452355757308636,-49.112383344381215,55.20024727705878,5.1157897940170916,-1653710.9438947502,5087880.9849137,3587671.681330058,-240.49935789762117,-5260.3457707308235,7309.519493304607,0.9946326048619865,-8.092201177065126e-06,8.040359743423634e-05,0.10346968065688293
0.29,7.894358341060596e-06,0.0005557688640598487,-0.007434056172031719,-49.112490882313736,55.18524627429224,5.113725060987593,-1653712.1456066843,5087854.683172971,3587708.229418374,-240.18541573309292,-5260.350520881063,7309.715833248237,0.9946345323109118,-8.203602414426315e-06,8.17669124006276e-05,0.10345114973516122
0.295,-3.753627797102781e-06,0.0005915318146253142,-0.007453233129169294,-49.11090696843184,55.18574173242537,5.110661691271516,-1653713.3457489833,5087828.381408538,3587744.778488247,-239.8715039113456,-5260.355252584933,7309.912116049116,0.994636454678873,-8.32922937893689e-06,8.315076888280423e-05,0.10343266428172443
0.3,1.0069648796354086e-05,0.0005688625397650958,-0.007457945754159429,-49.10968883705246,55.17393043294283,5.116351056470611,-1653714.5443217442,5087802.079620385,3587781.3285395456,-239.55760044081114,-5260.360008636355,7310.108403197397,0.9946383816514766,-8.493071749232003e-06,8.462054081698444e-05,0.10341413110868097
0.305,-1.5445762739996907e-05,0.0005869768971254297,-0.007481093038782886,-49.11865929819047,55.15930565856161,5.111392607401919,-1653715.7413250888,5087775.777808549,3587817.8795722257,-239.24373737397374,-5260.364725667645,7310.304668972614,0.994640309499907,-8.616681401466044e-06,8.603751709972436e-05,0.10339558617865535
0.31,1.7949918014407104e-05,0.0005906476947538626,-0.007450551663724647,-49.1102666268244,55.1510731100495,5.11097007407572,-1653716.9367590838,5087749.475973189,3587854.431586057,-238.92986058957433,-5260.369418247897,7310.500863505069,0.9946422429782887,-8.80842503306545e-06,8.749294057634565e-05,0.10337698365940062
0.315,8.5730325477694e-06,0.0005666226355337861,-0.007463657450192992,-49.1100264554794,55.148867420359004,5.115966603016277,-1653718.13062384,5087723.174114346,3587890.9845808162,-238.61604196849063,-5260.3741188988415,7310.69704022681,0.9946441682147571,-8.918068784213854e-06,8.896612338266737e-05,0.10335845704087751
0.32,-4.193914934487811e-06,0.0005832911108394325,-0.00744952579376114,-49.1084592036188,55.137572613627356,5.106337604706704,-1653719.3229195473,5087696.872232041,3587927.5385564966,-238.30224096859092,-5260.378803159093,7310.893231778437,0.9946460964950699,-9.044824125498474e-06,9.037714195205916e-05,0.10333989779985134
0.325,1.21144561813783e-05,0.0005431902561082625,-0.007451072769516306,-49.117493601708766,55.12729052075949,5.112729703427996,-1653720.5136463032,5087670.570326257,3587964.09351298,-237.9884613500017,-5260.383510695919,7311.08936151643,0.9946480207727176,-9.20762905325669e-06,9.182631055652511e-05,0.1033213736652004
0.33,2.223718359876735e-05,0.000565542770126381,-0.00748102898225575,-49.129309609167976,55.125039557842705,5.114596643686559,-1653721.7028041424,5087644.268397083,3588000.6494500567,-237.6746743370948,-5260.388158817695,7311.285469303291,0.9946499451124987,-9.319523421848113e-06,9.317997601213232e-05,0.10330284564493854
0.335,-1.3627397761950484e-05,0.0005592244939481421,-0.00742596613472867,-49.12384898530734,55.11618192744707,5.1076811480265345,-1653722.8903929458,5087617.96644474,3588037.2063676617,-237.36084702678693,-5260.392778003615,7311.481572684496,0.994651876835276,-9.412026035562402e-06,9.459183732062239e-05,0.10328424309574613
0.34,1.1402499716730881e-05,0.0005687973194190343,-0.007448306303343635,-49.13001777243271,55.104819547393376,5.105580863719808,-1653724.0764127073,5087591.664469237,3588073.764265681,-237.04705756990262,-5260.397423357188,7311.677635069569,0.9946537939935597,-9.592066111708336e-06,9.597872806321972e-05,0.10326577744002838
0.34500000000000003,7.644400400637217e-06,0.0005750761575861336,-0.007486827897564861,-49.117571888132176,55.093402292875076,5.113645799354259,-1653725.2608635128,5087565.3624705635,3588110.3231438934,-236.73326458629325,-5260.402046209664,7311.873649765863,0.9946557165717588,-9.712342701940755e-06,9.739588418421125e-05,0.10324725619033771
0.35000000000000003,2.2832832993656963e-05,0.0005396668022700738,-0.007462124119015747,-49.12013459891838,55.06999349511513,5.09899065145244,-1653726.4437455856,5087539.060448836,3588146.88300217,-236.41956455615164,-5260.406644681238,7312.069660863998,0.9946576487427577,-9.843594387784972e-06,9.882768250780791e-05,0.10322863911590392
0.355,6.412833911292268e-06,0.0005714903202068927,-0.007445558962508807,-49.1211736756969,55.067675505101214,5.105523043597652,-1653727.6250592046,5087512.758404099,3588183.4438401805,-236.10588305373435,-5260.411250065488,7312.265543464765,0.9946595741982913,-9.927933591162533e-06,0.00010017535064244708,0.10321008343184898
0.36,6.519782150018514e-06,0.000593509640460671,-0.0074549050439813355,-49.13312590485094,55.061731901971704,5.106186241369815,-1653728.8048044513,5087486.456336399,3588220.005657648,-235.79221559555845,-5260.415830161575,7312.461443623673,0.9946614950239028,-1.0061310685564505e-05,0.00010159791629657046,0.1031915689068061
0.365,-4.832202803898227e-06,0.0005396992828776702,-0.007460572200275083,-49.119035265219104,55.05193712889337,5.100255134539493,-1653729.982981271,5087460.1542458795,3588256.56845456,-235.47851240555656,-5260.42037732182,7312.657320931945,0.9946634179078455,-1.0200104727582337e-05,0.00010307526369554019,0.10317303110469642
0.37,-1.1280374312987343e-05,0.0005770673107612537,-0.007456145644065278,-49.12365310951402,55.0457637357861,5.1090640734330375,-1653731.1595897737,5087433.852132531,3588293.132230771,-235.16488863937045,-5260.424962346401,7312.853163498996,0.9946653419193521,-1.03532492925127e-05,0.00010441587488174712,0.10315447917852993
0.375,8.409849951011516e-06,0.0005732971303401132,-0.007433712732997823,-49.12588427282837,55.02965953767202,5.103027624890503,-1653732.3346301776,5087407.549996383,3588329.6969862077,-234.85127282267075,-5260.4294969581215,7313.0490112848065,0.9946672644316337,-1.0532063828790557e-05,0.00010584774495715787,0.10313593822436963
0.38,-2.001810857838756e-05,0.0005513920520750532,-0.007448391907081005,-49.11463865922539,55.01565431789539,5.103525197602693,-1653733.5081025462,5087381.247837585,3588366.262720697,-234.53767470416426,-5260.434021859646,7313.244784536222,0.9946691808147039,-1.0660937268701993e-05,0.00010727531732311392,0.10311745301236228
0.385,-4.440794428102536e-06,0.0005781149838340933,-0.007436701079384263,-49.112171387512085,55.009543398042226,5.098266987170152,-1653734.6800071308,5087354.945656171,3588402.8294339622,-234.22415915133362,-5260.438543788324,7313.440521472686,0.994671100640907,-1.085485868753875e-05,0.00010864108994817348,0.10309893127036893
0.39,-2.542887480460679e-05,0.0005928569601955061,-0.0074440834676224935,-49.11496644852572,54.993257044392415,5.1062732531841855,-1653735.8503441915,5087328.643452098,3588439.3971258425,-233.9106651007001,-5260.443085471796,7313.636230549038,0.9946730171006579,-1.1016928931083359e-05,0.00011007732918362244,0.1030804385588424
0.395,1.7137687908105522e-06,0.0005322218987162301,-0.007449018045441048,-49.114286001253674,54.99378507056493,5.104209688179326,-1653737.0191138657,5087302.341225483,3588475.9657961763,-233.59720453229858,-5260.447560475891,7313.831903115583,0.9946749351119364,-1.1234990918927616e-05,0.00011154481814135683,0.1030619274591431
0.4,-4.828475644846111e-06,0.0005731116412075386,-0.0074546765078691846,-49.13346649026793,54.97405944909368,5.092665658022467,-1653738.1863162506,5087276.038976447,3588512.5354448897,-233.2837494827922,-5260.4520540999865,7314.027582190449,0.9946768540656048,-1.1369936095010094e-05,0.00011286851991492797,0.10304340404690288
0.405,-1.4358297522063522e-05,0.0005712193123600894,-0.007439893510307887,-49.12065272123495,54.961476278216864,5.091214084223406,-1653739.3519512138,5087249.73670502,3588549.106071701,-232.97023574311558,-5260.456516567351,7314.223142209493,0.9946787741181007,-1.1531684957205614e-05,0.00011429221635148445,0.10302486652853284
0.41000000000000003,-1.0957460757102779e-05,0.0005575588541815244,-0.007428609231944909,-49.113208856580655,54.95388266568875,5.092556943156418,-1653740.5160188193,5087223.434411253,3588585.677676225,-232.65680649779375,-5260.460990249035,7314.418667568031,0.9946806900164921,-1.171663997796133e-05,0.00011570875300445908,0.10300636573785185
0.41500000000000004,4.065260824713614e-06,0.000573461522185261,-0.007440876350461729,-49.11674669871755,54.94455571440217,5.0898447359774135,-1653741.6785194161,5087197.132095116,3588622.2502583484,-232.34343218817213,-5260.465464476593,7314.614181734698,0.9946826026674834,-1.188961707839793e-05,0.00011709219623244235,0.10298789297143543
0.42,1.0365955236658804e-05,0.0005494044264336598,-0.007432634229980094,-49.12038244220138,54.9260153993099,5.093556723966121,-1653742.8394531505,5087170.829756633,3588658.823817945,-232.03006158973622,-5260.469928664577,7314.809656994695,0.9946845181270545,-1.2029335121837706e-05,0.00011851905221921237,0.10296938965964002
0.425,-1.788731324115213e-05,0.0005674324586454598,-0.007421587153077381,-49.116508889600894,54.917621912466394,5.092098401202219,-1653743.9988201028,5087144.527395971,3588695.3983547725,-231.7167192854196,-5260.474336205806,7315.005073883374,0.994686431126446,-1.2147189849846075e-05,0.0001198877073075604,0.10295090680668002
0.43,6.379012479541722e-06,0.0005746892444857147,-0.00743831540366168,-49.11295717048712,54.90168715852283,5.092167067044142,-1653745.1566204354,5087118.225013265,3588731.973868621,-231.4034137839976,-5260.478746136032,7315.200465459441,0.9946883409314384,-1.233993912525126e-05,0.00012129392153834449,0.1029324513968899
0.435,5.170831005363349e-09,0.0005784503354255226,-0.007439084066992648,-49.11034244321014,54.8900196424108,5.092888930737209,-1653746.312854368,5087091.922608564,3588768.550359297,-231.09015930897294,-5260.483134533055,7315.395805100467,0.9946902546944562,-1.2474217287674352e-05,0.00012272442529261804,0.10291395434530361
0.44,4.39642143101758e-06,0.0005519937891116368,-0.007425376321756857,-49.109698669944486,54.882433938652284,5.08720593606099,-1653747.4675221283,5087065.620181961,3588805.1278265878,-230.77694476072548,-5260.487506632427,7315.591111191606,0.9946921683078171,-1.2625313348876648e-05,0.00012416264188836297,0.10289545534829535
0.445,-1.5007870411813196e-05,0.0005858132820665291,-0.007420407852902492,-49.11033711633994,54.86080780189544,5.079447269734238,-1653748.6206238545,5087039.317733462,3588841.7062703175,-230.4637456744621,-5260.4918929609385,7315.786380711895,0.9946940780579744,-1.2758679648320976e-05,0.00012553619817443738,0.10287699040249704
0.45,5.333493400911116e-06,0.0005527217479634281,-0.007416383897382375,-49.11461549964373,54.86194624952927,5.083584168454785,-1653749.7721596665,5087013.015263062,3588878.2856901437,-230.15057916415188,-5260.496266959598,7315.981549768557,0.9946959861744877,-1.2948995838628602e-05,0.00012698886406104838,0.10285853778134009
0.455,-8.87468169699879e-06,0.00056915960297942,-0.007429597374141868,-49.11215741154346,54.85244420506588,5.087228735288298,-1653750.9221296213,5086986.712770829,3588914.8660858707,-229.83740277513814,-5260.500626287143,7316.176740909179,0.9946978929232732,-1.3080217697597322e-05,0.00012836447070096763,0.1028400951257404
0.46,-6.3519142633980935e-06,0.0005679697370916844,-0.007422224021046595,-49.10991731588586,54.82538114414706,5.084955081053588,-1653752.0705337918,5086960.410256857,3588951.447457511,-229.52426538144536,-5260.504962415319,7316.371915277606,0.9946998027189957,-1.3251002073369123e-05,0.00012977730068851486,0.10282161958000059
0.465,8.01071141220101e-06,0.0005734728549219411,-0.007423280224316526,-49.10431580264189,54.82288168775033,5.090569540769923,-1653753.217372431,5086934.107721305,3588988.0298047615,-229.2111903622673,-5260.509258078892,7316.566984903008,0.9947017102750032,-1.3415204701821428e-05,0.0001311878204645051,0.10280316233351851
0.47000000000000003,4.451000502565914e-06,0.0005610527690765023,-0.007424207003771303,-49.09719252258747,54.81385015939862,5.087015877249545,-1653754.3626458026,5086907.805164297,3589024.6131274095,-228.89815820563732,-5260.513545260551,7316.762074346905,0.9947036177565814,-1.3545105696007908e-05,0.0001326157163697701,0.10278470242001297
0.47500000000000003,6.9906696008732474e-06,0.0005656894556089815,-0.007427152826192254,-49.106004241791254,54.799198693072036,5.07824717750473,-1653755.5063541376,5086881.502585813,3589061.1974254274,-228.58517585637486,-5260.517848269297,7316.957132770208,0.9947055251356773,-1.3680667649002059e-05,0.00013401181172733223,0.1027662401678201
0.48,-4.929146859003049e-06,0.0005712739086255771,-0.007444899828865742,-49.100588319195396,54.79042255954613,5.087408250685022,-1653756.648497516,5086855.199985838,3589097.7826985326,-228.27217548237275,-5260.522142041574,7317.152109281624,0.994707432925356,-1.381110626408808e-05,0.0001354200897625826,0.10274777055343301
0.485,-2.588791959656276e-06,0.0005697598420740095,-0.007439662562533207,-49.10460301839663,54.76937196106735,5.080999005492458,-1653757.7890760375,5086828.897364486,3589134.3689465304,-227.95923310208295,-5260.526398602995,7317.347089910943,0.9947093449256237,-1.397262718294305e-05,0.0001368391925438889,0.10272925677448361
0.49,7.940031621126573e-06,0.0005564329897957346,-0.007435088119595549,-49.104482841476596,54.76050032442809,5.075174157195515,-1653758.9280898923,5086802.59472191,3589170.9561691885,-227.64630884170558,-5260.530631880841,7317.541973347806,0.9947112552350753,-1.412793752572228e-05,0.0001382551313774223,0.10271075598290987
0.495,1.8874693081697776e-05,0.0005737454148702354,-0.007395696483244483,-49.090004300332026,54.73669627076556,5.077522733080712,-1653760.065539164,5086776.29205814,3589207.5443661576,-227.33339982110806,-5260.53487592378,7317.736814137989,0.9947131640290346,-1.4253641406518644e-05,0.00013964063295813332,0.10269226652808006
0.5,1.020519392978241e-06,0.000549665335589183,-0.007428031332267882,-49.09062537297719,54.736703790359954,5.0741673310163495,-1653761.2014241833,5086749.989373216,3589244.1335371593,-227.02060794712793,-5260.539093885076,7317.931586683086,0.9947150623604509,-1.4356584031889962e-05,0.00014107199539998633,0.10267387499176586
0.505,-6.966857216289316e-06,0.0005747556037526289,-0.007411217443494337,-49.09182691027755,54.713246303658714,5.071625489788691,-1653762.3357452408,5086723.686667153,3589280.723682023,-226.707814994611,-5260.543331581092,7318.126358847869,0.9947169686560808,-1.4497756607244459e-05,0.0001424388916956819,0.10265540301725361
0.51,-1.5234044722064205e-06,0.0005749547071197831,-0.007423094580933956,-49.09136627249757,54.71038197839452,5.066442485672306,-1653763.4685024333,5086697.383939995,3589317.3148005134,-226.3950620499181,-5260.54753101304,7318.321037210167,0.9947188702831787,-1.4665225266817946e-05,0.00014386613297180502,0.10263697282180409
0.515,1.4317787437606248e-05,0.0005614954271379804,-0.007411652248790068,-49.09217806959969,54.685937176346386,5.0693139095576525,-1653764.5996958779,5086671.081191786,3589353.906892355,-226.08231574391115,-5260.55175308288,7318.5156993448,0.9947207746139104,-1.4819212518608853e-05,0.00014529526564118313,0.10261851305285499
0.52,-1.6698364544591056e-05,0.0005518780046300848,-0.007427121141528579,-49.084266475181174,54.6722418792847,5.067658946468016,-1653765.729325717,5086644.778422617,3589390.499957301,-225.7696199201272,-5260.5559140627365,7318.710279144456,0.9947226756705779,-1.493034877401801e-05,0.00014669499211959785,0.10260008169797066
0.525,-2.2255306542509847e-05,0.0005779316894763387,-0.007393621987088914,-49.085068895298974,54.66568656155417,5.076952237761958,-1653766.8573922375,5086618.475632647,3589427.093995036,-225.4569882997042,-5260.560074303989,7318.904814932094,0.9947245803532304,-1.5116155000662454e-05,0.00014806284564992662,0.10258161185117613
0.53,-3.3165165143127567e-06,0.0005557946097213829,-0.007434744621013163,-49.08541666941247,54.65859440058677,5.064961114589494,-1653767.9838956655,5086592.172821988,3589463.689005471,-225.14438291983797,-5260.56418912549,7319.099358918677,0.9947264760916471,-1.5322449461598775e-05,0.00014949406589673093,0.10256322527612266
0.535,-4.812067381038774e-06,0.0005766249937400335,-0.0073812884569168765,-49.069460314156736,54.63449100623054,5.0710055598407155,-1653769.1088360716,5086565.86999066,3589500.2849884927,-224.83177948035097,-5260.568342074516,7319.293849767304,0.9947283820394834,-1.547598587080736e-05,0.0001508750897267581,0.1025447363949638
0.54,1.1675762005161784e-05,0.0005623179884906033,-0.007398538074249728,-49.07394622779274,54.61978209366876,5.063188520787345,-1653770.2322137828,5086539.5671386635,3589536.881943824,-224.5193050474259,-5260.5724567085335,7319.488282698069,0.9947302739321022,-1.563856139449707e-05,0.00015230753360625544,0.10252638041409413
0.545,-1.4859797571171284e-05,0.000548947687510895,-0.007408395140378814,-49.072190063646225,54.60900904755081,5.061139879441006,-1653771.3540291286,5086513.2642661035,3589573.47987113,-224.20683319493713,-5260.576567043546,7319.682639749282,0.994732169910629,-1.5756474009676182e-05,0.00015370862382460432,0.10250798149551232
0.55,-2.5068752186090173e-06,0.0005686540269248138,-0.007410009728321278,-49.0731491663264,54.59551899624259,5.062927366174429,-1653772.4742821918,5086486.961373006,3589610.078770125,-223.8943921391008,-5260.580672194777,7319.876958316211,0.9947340680766309,-1.5936953437691744e-05,0.00015506966366383125,0.1024895580394879
0.555,2.4872583391020624e-06,0.000564971341932213,-0.007409806203909471,-49.06922109766841,54.5826479816075,5.069519642295942,-1653773.5929731212,5086460.658459462,3589646.6786406105,-223.58197955897717,-5260.584745293145,7320.07123579066,0.9947359663059439,-1.609176303942466e-05,0.00015648287491702983,0.10247113052731086
0.56,1.1878511278617542e-05,0.0005774439406345151,-0.007388232912153161,-49.07036811617635,54.56922866488058,5.068872296915496,-1653774.710102126,5086434.355525652,3589683.2794824303,-223.26962239172724,-5260.588778832094,7320.26549226896,0.9947378641414019,-1.6233209523074934e-05,0.00015788820726264462,0.10245270348409036
0.5650000000000001,-2.06356659145599e-05,0.0005790702423591978,-0.007393543175430114,-49.066798170142256,54.55265988439993,5.050901068689488,-1653775.825669406,5086408.052571731,3589719.8812954137,-222.9572896148726,-5260.592789654133,7320.459700997063,0.9947397561043237,-1.635448752713217e-05,0.0001593269632430377,0.10243433005081795
0.5700000000000001,-4.710299774410803e-06,0.0005475906321687923,-0.00740425989760401,-49.06084150167665,54.542286892479254,5.057581640883559,-1653776.9396750946,5086381.749597635,3589756.484079178,-222.64498584436532,-5260.596848485687,7320.6538047204485,0.9947416490834593,-1.655704197528102e-05,0.0001607614368991435,0.10241594338941891
0.5750000000000001,1.4193645783040142e-05,0.0005330881959631092,-0.007403052629054556,-49.05166373519614,54.53105129760836,5.056474789732115,-1653778.0521194146,5086355.446603321,3589793.0878334385,-222.33274212635604,-5260.600877281873,7320.847899512686,0.9947435444774885,-1.6711936627448048e-05,0.00016212170238644573,0.10239753003675281
0.58,-1.502014732511984e-05,0.0005657760387444841,-0.0074052386871885515,-49.05195027056231,54.51790524825796,5.059212820681736,-1653779.163002681,5086329.143588849,3589829.6925580944,-222.020564466393,-5260.604911405694,7321.0419628133595,0.9947454392265284,-1.6816106805909277e-05,0.00016345074164969816,0.1023791196440701
0.585,-9.686309069723489e-06,0.0005598173604508212,-0.007388628347783976,-49.05507797178374,54.49786928062386,5.051771513834427,-1653780.2723251395,5086302.84055429,3589866.2982529756,-221.70841886734098,-5260.608911862161,7321.235989635345,0.9947473341777867,-1.7001294971914416e-05,0.0001648535937649938,0.10236070379025032
0.59,-7.513824147802583e-06,0.0005721378062769958,-0.0073831984844037885,-49.04769336802689,54.47559676128705,5.051721644411718,-1653781.3800869167,5086276.537499769,3589902.9049177524,-221.39629204925706,-5260.6128971687285,7321.429921163012,0.9947492245389716,-1.7171686896664035e-05,0.00016624299301980756,0.10234232920700596
0.595,1.5800517782138926e-05,0.0005461742475233191,-0.007401206758246425,-49.052156113481814,54.47026484056974,5.049036282083845,-1653782.4862882583,5086250.234425388,3589939.512552,-221.08424461641644,-5260.616854657789,7321.623777828897,0.9947511131647168,-1.7339826122414486e-05,0.00016766358767845237,0.10232396809061232
0.6,-3.465118886317889e-06,0.0005755297398794351,-0.0073847147657903406,-49.039319258089684,54.45164987886028,5.0484304924247425,-1653783.5909293434,5086223.931331229,3589976.121155472,-220.77218938647258,-5260.620809117586,7321.817611028262,0.9947530060673678,-1.744335123567597e-05,0.0001690255773413792,0.1023055621460488
0.605,-1.2702247848917855e-05,0.0005764577458951218,-0.0073930464411644066,-49.045718564814955,54.42512173367658,5.044145877135129,-1653784.6940103935,5086197.6282173125,3590012.730727968,-220.46023062184813,-5260.624757520165,7322.0113872671245,0.9947548943969526,-1.760228882436541e-05,0.00017045564387161037,0.10228719718684497
0.61,-8.014054377631804e-07,0.0005436050261099383,-0.007392620474462213,-49.03146382107139,54.409978108483585,5.04939361797546,-1653785.7955316994,5086171.325083777,3590049.341269056,-220.1482917755551,-5260.628656689128,7322.20504791743,0.9947567845147991,-1.778443896341458e-05,0.0001718856557229192,0.10226881147648458
0.615,-4.5883726342360685e-06,0.000539672820483492,-0.007379554988676879,-49.03210267422844,54.403524937922086,5.039166963963581,-1653786.8954935712,5086145.021930791,3590085.9527783836,-219.83645694257422,-5260.632537575648,7322.398683242494,0.9947586741966357,-1.7928593282468172e-05,0.00017323700908190306,0.10225042678666964
0.62,1.6737143136322153e-06,0.0005756750563583159,-0.007402065679292531,-49.02602096508737,54.39533510878128,5.047874826977211,-1653787.993896273,5086118.718758321,3590122.5652557733,-219.52462378846317,-5260.636450471739,7322.592272676069,0.9947605601991251,-1.8081154558725205e-05,0.00017457761593044717,0.10223207455613308
0.625,1.4548166397238214e-05,0.0005429088745365385,-0.007386994300442659,-49.01759331149345,54.374102693995816,5.03645083977111,-1653789.090739957,5086092.415566369,3590159.1787011246,-219.21284983643355,-5260.64033057278,7322.78586775346,0.994762451597923,-1.822735391878234e-05,0.00017600935617766443,0.10221366630426698
0.63,-9.942792284196197e-06,0.0005564749089507357,-0.007385567322864833,-49.01402091569936,54.35638146007623,5.0400549810527,-1653790.1860249403,5086066.112354962,3590195.793114197,-218.90114345604658,-5260.644232174921,7322.97936127609,0.9947643388185714,-1.8333156208088513e-05,0.0001773629004951465,0.10219529549420228
0.635,-1.1469393004864307e-05,0.0005578137795097117,-0.007388457479722908,-49.01402957336327,54.345111061035425,5.040337250104401,-1653791.2797515383,5086039.809124147,3590232.4084946136,-218.5894957791425,-5260.64809409929,7323.172805392489,0.9947662253264294,-1.850333065141158e-05,0.00017874392518345435,0.10217692820810141
0.64,2.1757482674746832e-05,0.0005573974596918635,-0.007388893411662539,-49.01000051720897,54.33034438979574,5.0401846716787615,-1653792.371919965,5086013.5058740685,3590269.024842162,-218.27787479967745,-5260.651936860627,7323.366213970669,0.9947681122306915,-1.8677644911175797e-05,0.00018012788937636054,0.10215855369999902
0.645,-7.0687061021423414e-06,0.0005693210487805035,-0.00736651068297256,-49.01014681372517,54.30417398365022,5.039910625503543,-1653793.4625304127,5085987.202604821,3590305.6421566345,-217.9663043845141,-5260.655762466308,7323.559575004694,0.9947699989066747,-1.8769220443280766e-05,0.00018151930415681057,0.1021401780577698
0.65,9.788911241579235e-06,0.0005606676463880638,-0.007379278482681551,-49.003611570223235,54.28706982274013,5.038159506336222,-1653794.5515831397,5085960.899316573,3590342.2604376683,-217.65478634853142,-5260.65953666609,7323.752838377376,0.9947718795200676,-1.8935519074940624e-05,0.00018293301221704,0.10212185805727986
0.655,3.41391039674567e-06,0.0005643427403584939,-0.00737287907806841,-49.0018894376637,54.28486656213585,5.028911858131417,-1653795.6390784362,5085934.596009482,3590378.8796848697,-217.34333227002367,-5260.66329976158,7323.946042336433,0.994773763057938,-1.9057690576217163e-05,0.0001843295030349492,0.10210350626197023
0.66,4.748911263510554e-06,0.0005711200260110289,-0.007371492349992524,-48.99792978630543,54.260222387180946,5.022491548831625,-1653796.7250164768,5085908.292683468,3590415.499898032,-217.03188397887624,-5260.66710553197,7324.139222367928,0.9947756446200756,-1.919665143087631e-05,0.00018573350653750868,0.10208517034940151
0.665,-1.4598117040662875e-05,0.0005653931516923427,-0.00734532137444536,-48.981093901947446,54.2511726767197,5.043106728975368,-1653797.8093974262,5085881.989338464,3590452.1210768307,-216.72049577843723,-5260.670896038864,7324.332297165973,0.9947775254853077,-1.9334021220100507e-05,0.000187154705449391,0.10206683784971378
0.67,-4.740994524261493e-07,0.0005465893046635453,-0.007380012823723064,-48.98036114735265,54.22477144941074,5.027849926406342,-1653798.892221745,5085855.685974658,3590488.7432211144,-216.4092317773346,-5260.674626870399,7324.525416450527,0.994779399335657,-1.9518032420156832e-05,0.00018855672642287627,0.1020485704103538
0.675,-1.0750174860571285e-05,0.0005534933097515161,-0.007375160317706711,-48.9884808740747,54.20348210185027,5.03610498605435,-1653799.9734898375,5085829.382592173,3590525.3663306455,-216.09800521934832,-5260.678366595181,7324.718395895951,0.9947812817071296,-1.9662136998232578e-05,0.00018991558477971917,0.10203021665463365
0.68,-4.83026050823601e-07,0.0005656784606203517,-0.007377513681627352,-48.98192088816721,54.19873228000126,5.030573360602724,-1653801.053201844,5085803.079191217,3590561.9904049216,-215.78679735567943,-5260.682016098338,7324.911314593363,0.9947831624967776,-1.9833556427168045e-05,0.00019128899207219806,0.10201187493650689
0.685,6.0429826031815176e-06,0.0005601215057132659,-0.007368678282870819,-48.9754356584309,54.17669648141027,5.031917915453361,-1653802.1313579031,5085776.775771932,3590598.615443742,-215.47562630684425,-5260.685697750989,7325.1042134512545,0.9947850435410469,-1.9982550583060453e-05,0.00019269532156760381,0.10199352732525857
0.6900000000000001,1.9449558988594395e-05,0.0005737498211135097,-0.007361885024579281,-48.953773833406196,54.1586384788859,5.019670110631885,-1653803.2079582985,5085750.472334326,3590635.241446879,-215.16453187296523,-5260.689344685759,7325.297041487372,0.9947869219954711,-2.011389360268805e-05,0.00019408949552607408,0.10197520164959444
0.6950000000000001,-5.915899988930194e-06,0.0005398922224947089,-0.007363837395331043,-48.959232790150445,54.13393195623373,5.022509806386047,-1653804.2830035219,5085724.168878337,3590671.868413957,-214.8535574037682,-5260.693050743677,7325.489789572195,0.9947887983728184,-2.0215365977590893e-05,0.00019552098078059224,0.10195689282657176
0.7000000000000001,-1.7419890295406032e-05,0.0005678454560112951,-0.007353891088721599,-48.95313252018776,54.132670154457315,5.019948526266063,-1653805.3564939473,5085697.865403997,3590708.496344556,-214.54261277403972,-5260.69668548449,7325.682450135446,0.9947906749240892,-2.037129244718163e-05,0.0001968617975117493,0.10193857912742431
0.705,-5.388606859888489e-06,0.0005568673659524364,-0.007362349750461184,-48.95164552537431,54.11077251388969,5.021626018970066,-1653806.42842973,5085671.561911414,3590745.1252384637,-214.23170037188078,-5260.700347695595,7325.875112904329,0.9947925485876338,-2.0562947952686238e-05,0.00019826920197146835,0.10192029013405024
0.71,-9.09257521820303e-06,0.0005700821510633668,-0.007359616553859396,-48.94574708229883,54.0966487097133,5.015175844598395,-1653807.4988110869,5085645.258400635,3590781.755095501,-213.92084232138802,-5260.703963902716,7326.0677020946505,0.994794424073919,-2.072188884083708e-05,0.00019965236920314275,0.10190198006405266
0.715,-3.1262058866672106e-06,0.0005593845784812334,-0.007366881506388517,-48.945247489018726,54.08213049087549,5.018951042443875,-1653808.5676382773,5085618.954871743,3590818.385915332,-213.61003389205126,-5260.707593010191,7326.260230244613,0.9947962985182588,-2.089340660730377e-05,0.00020106745789048397,0.1018836767579297
0.72,4.542860471533693e-06,0.0005711224214198098,-0.007351311632455706,-48.94378744350442,54.057308924940294,5.009945550904451,-1653809.634911524,5085592.651324803,3590855.0176977073,-213.2992647210013,-5260.711182710207,7326.452719816727,0.9947981744796587,-2.1047364943122526e-05,0.00020245746105491014,0.10186535534676938
0.725,5.9553024463162035e-06,0.000541538784769748,-0.007352259170693349,-48.93326769138544,54.04085627474555,5.010416294991177,-1653810.7006310392,5085566.3477599425,3590891.6504422417,-212.98854136392436,-5260.714761755909,7326.645094059019,0.9948000461317407,-2.1185231657013503e-05,0.00020387860996190716,0.10184707261863261
0.73,2.1487727143723536e-06,0.0005494666539572816,-0.007376230425927548,-48.92726575447209,54.035202965572644,5.010574227957688,-1653811.764797146,5085540.044177212,3590928.2841485296,-212.67790141677537,-5260.718330532267,7326.837421032435,0.9948019177022622,-2.131205358633045e-05,0.00020522654387440022,0.10182878750021346
0.735,1.093650116063318e-05,0.0005504632188245894,-0.007356025398139639,-48.918069257572704,54.004187663707874,5.004266502806999,-1653812.8274101613,5085513.740576621,3590964.918816432,-212.36730467715964,-5260.721905758458,7327.029739886927,0.994803795031883,-2.145037287821763e-05,0.00020659322405266084,0.1018104427319938
0.74,-1.4748898367988575e-05,0.0005394604598817943,-0.007362277033656815,-48.91929570384458,53.98870740459512,5.011119784777811,-1653813.8884704306,5085487.436958203,3591001.5544456122,-212.05680307420982,-5260.725461395244,7327.221932300204,0.9948056668795099,-2.156708021509718e-05,0.00020796462041655989,0.10179214817455885
0.745,-1.3807906810103781e-05,0.0005457848737676923,-0.007343565996092002,-48.90797591756838,53.965259958190806,5.001419561257393,-1653814.947978285,5085461.13332215,3591038.1910356665,-211.74633865750545,-5260.728959721072,7327.41408937449,0.9948075399838193,-2.1744870761175947e-05,0.00020930211592527523,0.10177383804852133
0.75,2.1256792955556606e-06,0.0005432989547068604,-0.007365254739909567,-48.901162893829934,53.95245290629438,5.000584336546237,-1653816.0059340338,5085434.829668567,3591074.8285862473,-211.43596081315656,-5260.732473529882,7327.606142977927,0.9948094079861483,-2.1921920395197485e-05,0.00021065558073737935,0.10175557442177295
0.755,1.8776506210744625e-05,0.0005499762908150732,-0.007362304817936122,-48.903678467572064,53.93412618103412,4.995536728308478,-1653817.0623380393,5085408.525997425,3591111.467096998,-211.12564145294428,-5260.735982974718,7327.798157293128,0.9948112811698998,-2.2058721850371687e-05,0.00021200691507807556,0.10173725681176679
0.76,-8.38177553977801e-06,0.0005310169745383297,-0.007329853394627864,-48.89121779434747,53.914660082763874,4.997959147678581,-1653818.1171905014,5085382.222308786,3591148.106567617,-210.81534336993482,-5260.739472864718,7327.990090350189,0.9948131532617296,-2.2155808992691485e-05,0.0002133790912561055,0.10171894649443664
0.765,-1.4446222687156311e-05,0.0005648984124501205,-0.007352035398566001,-48.89006385035785,53.896422202902144,4.997830404897917,-1653819.170491723,5085355.91860275,3591184.7469977704,-210.50514532429267,-5260.742941861754,7328.181970969748,0.9948150167725065,-2.231560105189205e-05,0.0002146972104366964,0.10170071686590715
0.77,-7.679794828018334e-06,0.0005544522007560198,-0.00734113758666337,-48.88061400587564,53.878341606868666,4.989203309306431,-1653820.2222420643,5085329.614879445,3591221.3883871664,-210.19499110278596,-5260.746379630814,7328.373787457787,0.9948168855676406,-2.249910193373198e-05,0.00021609805081854852,0.10168243203682095
0.775,-1.3623627794027303e-05,0.0005791877842884314,-0.007330134198272158,-48.87362202322117,53.87232720243482,4.9929085647199845,-1653821.2724418088,5085303.311138904,3591258.0307354443,-209.8849067211285,-5260.749837055455,7328.565523680774,0.9948187512609813,-2.2663113038201286e-05,0.000217474631637704,0.10166417427348565
0.78,-8.295134138455962e-06,0.0005498783258292305,-0.007325138683319055,-48.85986929503222,53.84384275057195,4.991140589223292,-1653822.3210912636,5085277.007381091,3591294.674042406,-209.5748751545332,-5260.753288120263,7328.757261028366,0.9948206138073318,-2.284818755051947e-05,0.00021891122087533204,0.10164594384352697
0.785,-6.3267913294301804e-06,0.0005303888769667418,-0.007342101586679453,-48.85214773481977,53.82822137363045,4.988448682239696,-1653823.368190852,5085250.703606078,3591331.3183078053,-209.26496030285125,-5260.756716750374,7328.94889863442,0.9948224747647577,-2.301255911394606e-05,0.00022027627024019024,0.10162772580211543
0.79,-9.49438332580786e-06,0.0005468713996125045,-0.007337791238178197,-48.85140848266117,53.806956032158304,4.986174404782494,-1653824.4137410296,5085224.399813928,3591367.9635312543,-208.95511067648357,-5260.760143695961,7329.140481056511,0.9948243397065704,-2.3167092960805137e-05,0.00022159334729584404,0.10160946553870114
0.795,1.1588184152707867e-05,0.0005211171933084636,-0.0073237848959541,-48.841244440446616,53.791723025958596,4.980830346878312,-1653825.4577420705,5085198.096004718,3591404.609712409,-208.64530572082504,-5260.763540075406,7329.33198071223,0.9948262032073585,-2.3333689356840737e-05,0.00022295061291956612,0.10159121596178801
0.8,1.3774398669952596e-05,0.0005358605272907792,-0.007329897312364791,-48.84935620030924,53.769235891329565,4.985348301414686,-1653826.500194267,5085171.79217849,3591441.256850914,-208.33557283193764,-5260.766951137849,7329.52342139386,0.9948280628305128,-2.3441303208933796e-05,0.0002242491813960396,0.10157300117501343
0.805,7.879399410072551e-06,0.0005663833575398154,-0.007294901916402376,-48.83564052166446,53.747764063993905,4.977962432005325,-1653827.5410978387,5085145.488335403,3591477.9049464324,-208.0258558434339,-5260.770283858536,7329.714785916917,0.9948299236621521,-2.3547227022712342e-05,0.00022558497229555874,0.10155477114988387
0.81,-1.077072074766157e-05,0.0005647496781504318,-0.0073172079827999005,-48.84082818000735,53.73001237467139,4.9743256713586375,-1653828.5804530669,5085119.184475612,3591514.5539985555,-207.71623548369797,-5260.773632267362,7329.906063390554,0.9948317752569971,-2.367554174423882e-05,0.00022699518107833268,0.1015366281283175
0.8150000000000001,3.341598963272708e-06,0.0005347756050807705,-0.007327665010108141,-48.82979868568931,53.70984707842606,4.9871249291358275,-1653829.6182602183,5085092.880599153,3591551.204006873,-207.40662509322172,-5260.776951255385,7330.09726356446,0.9948336321799911,-2.3849838750863233e-05,0.00022839659119844853,0.10151842960639518
0.8200000000000001,1.2870963657789713e-05,0.0005542807433650174,-0.007319380227564671,-48.82214593074804,53.692096881265215,4.978951360590793,-1653830.6545195882,5085066.576706266,3591587.8549711225,-207.0971228107262,-5260.780203835035,7330.288436172471,0.9948354914396311,-2.3981435892567693e-05,0.00022972703422948133,0.10150020503648381
0.8250000000000001,2.1517545121818888e-05,0.0005433855008214131,-0.007329575846134058,-48.81172259796735,53.66432638220225,4.970500499808365,-1653831.6892316006,5085040.272797078,3591624.506891037,-206.78768222599015,-5260.783471293177,7330.479529545384,0.9948373482510464,-2.4094277331422757e-05,0.00023110840677052994,0.10148200103070704
0.8300000000000001,8.9375681685817e-06,0.0005640000158836656,-0.007315172976378694,-48.80788058617967,53.649205749074184,4.972111056278375,-1653832.72239664,5085013.968871556,3591661.159766122,-206.47833350321127,-5260.786737396196,7330.670504548704,0.9948392073205129,-2.418285561990084e-05,0.0002324648748149865,0.10146377162891726
0.835,4.128696955154657e-06,0.0005422025043841313,-0.007320135265104363,-48.797521102054034,53.63330559071903,4.973872902906289,-1653833.754015067,5084987.664929768,3591697.813595971,-206.16903720227165,-5260.789977989112,7330.86143518038,0.9948410623885281,-2.430794223168353e-05,0.00023386942294163936,0.10144557802034512
0.84,-1.1256602284377628e-05,0.0005423843738343601,-0.00731092364593894,-48.78188939960031,53.618819012671274,4.972454906094386,-1653834.7840872202,5084961.360971813,3591734.4683803697,-205.85982412799197,-5260.793204037973,7331.052324129646,0.9948429183926489,-2.443946374010148e-05,0.00023521853844247527,0.10142737204004232
0.845,-1.7719826390562935e-05,0.0005409257783370661,-0.007310723982292096,-48.78636154855641,53.59559656647759,4.969011281076357,-1653835.8126135587,5084935.056997697,3591771.1241191113,-205.55071126948195,-5260.796442160709,7331.243172630039,0.9948447717253618,-2.46092908297691e-05,0.00023656420552968334,0.10140918894494894
0.85,-8.930274585862293e-06,0.0005578542411575264,-0.00729745508604035,-48.77571966870983,53.583436280647064,4.96955489909438,-1653836.839594391,5084908.753007494,3591807.78081185,-205.24162167068124,-5260.799639067275,7331.433922735259,0.994846624673766,-2.4794822767409782e-05,0.00023790460628366663,0.10139100631629157
0.855,-2.8582241075193725e-06,0.0005580628593325643,-0.007311534798646694,-48.77222008533804,53.5613303800704,4.958378481862429,-1653837.8650299658,5084882.449001308,3591844.4384582643,-204.93260821320243,-5260.802835419486,7331.62464311998,0.9948484739156835,-2.4962777149759428e-05,0.0002392893387943725,0.10137285664864996
0.86,1.987404790975427e-05,0.0005549460348857852,-0.007313379205427728,-48.76872758979635,53.53749974156119,4.9630378338494,-1653838.8889205907,5084856.144979119,3591881.097058009,-204.62364179671718,-5260.80603990993,7331.815254666739,0.9948503263924158,-2.5115690891652207e-05,0.00024067612805759003,0.10135467192540902
0.865,2.5166515652538233e-05,0.0005462900921234546,-0.007288348980845319,-48.76104830909515,53.50702748024256,4.96202577757911,-1653839.9112665597,5084829.840941055,3591917.7566106324,-204.31474582837535,-5260.809186160394,7332.005794668304,0.9948521790053928,-2.5211277952501567e-05,0.0002420609252444802,0.10133648256734518
0.87,-7.2171996353221814e-06,0.0005445445981335514,-0.007296259648442578,-48.75082353425363,53.496988042620515,4.956419129789944,-1653840.932068284,5084803.536887364,3591954.4171156785,-204.00594379018477,-5260.8122898590145,7332.196223805541,0.9948540249494385,-2.529149389314901e-05,0.00024342553626925616,0.10131835542610602
0.875,1.2230930328103173e-05,0.0005300103865805387,-0.007296545480296955,-48.742166243206604,53.47684064089531,4.9593850688617085,-1653841.951326154,5084777.232818087,3591991.078572774,-203.69720428932325,-5260.8154211582605,7332.38661427526,0.9948558725637361,-2.5451815186813757e-05,0.00024477760277124254,0.10130020859592316
0.88,-9.851707693614444e-06,0.0005534361096587863,-0.0073083647143230325,-48.73594102125062,53.456436559053955,4.953126490707769,-1653842.9690405387,5084750.928733234,3592027.7409816785,-203.38854953189121,-5260.81851992012,7332.576947686073,0.994857719927734,-2.556008563446658e-05,0.00024609844580791905,0.10128206100997131
0.885,-7.66936171784318e-06,0.0005459544183831763,-0.007284389616076716,-48.725607847732654,53.43156861491271,4.953886167490761,-1653843.9852118054,5084724.624632892,3592064.4043420358,-203.07995723832155,-5260.821616911476,7332.767195170853,0.9948595699351998,-2.572921756635226e-05,0.0002474719597227626,0.10126388400602633
0.89,-1.2264392371988417e-05,0.0005445671486069435,-0.0073108302245232576,-48.72362965055902,53.41330566924765,4.946408923905897,-1653844.9998403557,5084698.320517143,3592101.068653428,-202.77146288958826,-5260.824682672739,7332.957361669561,0.9948614135450039,-2.589101277447105e-05,0.00024882741949861187,0.10124576659696713
0.895,-1.399142698021829e-05,0.0005633039862035197,-0.007284505539626854,-48.70777384021714,53.39318521561457,4.948928934107099,-1653846.0129265294,5084672.0163860675,3592137.733915442,-202.46300651616465,-5260.827747651516,7333.14744396319,0.9948632635148883,-2.6063901830548492e-05,0.00025017826405831296,0.10122758339511606
0.9,5.527316278638851e-07,0.0005561535733248719,-0.007284101508994587,-48.70439127106037,53.372720706290565,4.943283210299243,-1653847.0244707118,5084645.712239707,3592174.400127737,-202.15466652522187,-5260.830796681175,7333.337474059076,0.9948651064779301,-2.6245811533435735e-05,0.0002515752746692178,0.10120946563289111
0.905,1.9227042400230167e-07,0.0005479860100223997,-0.00729858240959016,-48.692592940679724,53.359882420670964,4.945746717975821,-1653848.0344733212,5084619.408078126,3592211.067289965,-201.84637712203414,-5260.833835524835,7333.527417304942,0.9948669490123165,-2.6389738059995675e-05,0.00025295818099834214,0.10119134883311529
0.91,7.758661479505833e-06,0.0005645794129135837,-0.007300020194202889,-48.67699608279597,53.3272924107373,4.940720846285501,-1653849.0429346955,5084593.1039013695,3592247.7354018446,-201.5381726831774,-5260.836866958931,7333.717334355315,0.994868794882736,-2.6532504045909435e-05,0.00025432068100171497,0.10117319598386691
0.915,-1.4478875900957189e-05,0.0005470768514192585,-0.007296959568347468,-48.68155066114691,53.30764051731881,4.936393079754903,-1653850.049855368,5084566.799709495,3592284.4044629987,-201.23009625736597,-5260.83988300762,7333.907127239689,0.9948706407735557,-2.666064904021665e-05,0.0002557263652612898,0.10115503951880322
0.92,2.4789379772697193e-05,0.0005567892812028172,-0.007265623991086941,-48.66727765814051,53.28637712043939,4.936708804151636,-1653851.0552356963,5084540.495502614,3592321.074472901,-200.9220350629532,-5260.84286924235,7334.096833671109,0.9948724855669492,-2.683967457079278e-05,0.00025708289408037815,0.10113689064756755
0.925,-6.667399434267945e-06,0.0005543158809375357,-0.007267765391238905,-48.661599550427304,53.27318548799927,4.934513363637493,-1653852.0590759898,5084514.191280835,3592357.7454311745,-200.6140823525676,-5260.845842308664,7334.286475739018,0.9948743221022212,-2.6923468397384653e-05,0.00025847351016247916,0.10111881965399568
0.93,-1.347783863482567e-05,0.000542480565997033,-0.007268728934605242,-48.65569327583165,53.242679589666196,4.937070084605005,-1653853.0613766501,5084487.887044197,3592394.417337544,-200.30618180487548,-5260.84881290283,7334.476072028342,0.9948761588480539,-2.7084877185205674e-05,0.00025985002202765374,0.10110074332128959
0.935,-1.5491459928298976e-05,0.0005531726864334563,-0.0072797822752933275,-48.65505213329892,53.223460100718334,4.928045263064592,-1653854.062138034,5084461.582792858,3592431.090191638,-199.99837174294274,-5260.851723081891,7334.6655656921075,0.9948779955143009,-2.726023405110951e-05,0.000261195375708472,0.10108266456372267
0.9400000000000001,-2.3493895187589238e-05,0.0005459411065042966,-0.007253109632235921,-48.63402454915864,53.205250144250364,4.932856308740772,-1653855.0613604467,5084435.2785269655,3592467.7639929666,-199.69059333479228,-5260.854633600903,7334.8549657744425,0.9948798346357903,-2.744330836449897e-05,0.00026256681308197923,0.10106455828130878
0.9450000000000001,6.168121289948772e-06,0.0005375672017967822,-0.007267045702835467,-48.62782699815163,53.18567629901077,4.931011402554309,-1653856.0590443148,5084408.974246547,3592504.4387412113,-199.3829539293334,-5260.857534046305,7335.044332046727,0.9948816666921309,-2.7644441672991164e-05,0.0002639182439092347,0.1010465183112875
0.9500000000000001,-5.243275891801344e-06,0.0005422340970082128,-0.007265385867525073,-48.61127457198301,53.15822342736396,4.922159363605386,-1653857.055190152,5084382.669951669,3592541.1144361114,-199.07538091957758,-5260.860417096411,7335.233627970024,0.9948835019469543,-2.7769693291526162e-05,0.00026525633918397345,0.10102844362694793
0.9550000000000001,2.9744142481864776e-06,0.0005577397595127211,-0.0072387266762305395,-48.60996114008067,53.1371107820361,4.922955037971649,-1653858.0497984192,5084356.365642342,3592577.791077208,-198.76792595618693,-5260.863313507211,7335.422810595938,0.994885336448553,-2.79245050500142e-05,0.0002666031598393159,0.10101037304468652
0.96,3.6838555701227516e-06,0.0005539789840021704,-0.0072612801484182015,-48.59680320927664,53.111674465960476,4.92640403326789,-1653859.0428695383,5084330.061318637,3592614.4686640343,-198.46052165395722,-5260.8661685597845,7335.611919962208,0.9948871638793504,-2.8062775464044486e-05,0.00026799062333814197,0.10099236872956831
0.965,2.5311576260559595e-06,0.0005404099761559042,-0.00724687563079692,-48.588582064459736,53.103855730846,4.92240530567501,-1653860.0344039232,5084303.756980751,3592651.1471962235,-198.15323230280137,-5260.868986102572,7335.800955762269,0.9948889966782802,-2.8198346919871577e-05,0.00026936891041832306,0.10097430828546597
0.97,1.0339454402697171e-06,0.0005635685703097558,-0.007261440602136963,-48.58074185562711,53.07037035403252,4.919765215218034,-1653861.02440199,5084277.452628721,3592687.8266735245,-197.84599447410133,-5260.871825813058,7335.989964623232,0.9948908255209841,-2.8333350379348793e-05,0.00027071315830117014,0.10095628363693865
0.975,6.571318236480676e-06,0.0005400562581674829,-0.00725824532998357,-48.566813470043364,53.04017549004724,4.915594624059664,-1653862.0128641124,5084251.1482625995,3592724.50709555,-197.53885442706616,-5260.8746226577705,7336.178845772714,0.9948926576948641,-2.8477932607443974e-05,0.0002721146278624705,0.10093822272799714
0.98,-8.651452791956495e-06,0.0005238742854071936,-0.007252707209066623,-48.56888150067266,53.032254950005445,4.906752634366339,-1653862.9997908273,5084224.843882536,3592761.188461698,-197.23183158058495,-5260.877402689428,7336.367613380082,0.9948944887492004,-2.8602806696056666e-05,0.0002734590143257381,0.10092016973090252
0.985,-4.109120163918119e-06,0.000555014433441046,-0.007255538323945911,-48.5586944327505,53.00606472558353,4.910786732947619,-1653863.9851824264,5084198.539488522,3592797.8707715604,-196.92480806707576,-5260.880202647951,7336.556331518594,0.994896318087148,-2.8761456897985894e-05,0.0002747593119941875,0.10090213048660444
0.99,2.8919543165845593e-06,0.0005433747317267343,-0.00726110168250751,-48.54239722887953,52.97096283660078,4.908136165497871,-1653864.9690391673,5084172.235080629,3592834.5540248198,-196.6178882539922,-5260.882955005221,7336.74497215868,0.9948981477891736,-2.8916666428274235e-05,0.00027613820824235716,0.10088408416191337
0.995,-9.626970039330715e-06,0.0005249293157372645,-0.007238460734167247,-48.53159984973951,52.962841316346996,4.906421187612305,-1653865.9513616555,5084145.930659045,3592871.238220964,-196.3111070220405,-5260.885678143706,7336.933485516477,0.9948999785734108,-2.9051530747928876e-05,0.0002774899189451756,0.10086602396238456
1.0,7.4994332113981885e-06,0.0005412611206040061,-0.0072320912471622945,-48.52128247405578,52.93466501472201,4.909146020685858,-1653866.9321504037,5084119.626223803,3592907.9233596255,-196.00439231460365,-5260.888419023024,7337.121979199798,0.9949018033316823,-2.9212865755909614e-05,0.0002787925960054906,0.10084802005326343
1.0050000000000001,-1.3608627482568046e-05,0.0005322116082810714,-0.007268415215182854,-48.51870847394938,52.91493923438201,4.909382165607099,-1653867.911405844,5084093.321774973,3592944.609440533,-195.6977837587175,-5260.891113138681,7337.310383733696,0.9949036261466637,-2.933571616661267e-05,0.00028014021270420176,0.10083003194037314
1.01,-1.3913281361476781e-05,0.0005208747764327576,-0.00726490807243133,-48.50253363200412,52.89466584818029,4.906562334683715,-1653868.889128374,5084067.017312755,3592981.2964632926,-195.39122822104704,-5260.893773777956,7337.498720057349,0.9949054577941435,-2.950881206592068e-05,0.0002814599973487482,0.10081195346250245
1.0150000000000001,3.144008353295059e-06,0.0005427648375611887,-0.007250433715081598,-48.496493275661514,52.86882019670654,4.899199012882843,-1653869.8653184038,5084040.712837221,3593017.9844275643,-195.08478376898165,-5260.896439668554,7337.686988710534,0.9949072882356018,-2.9679806021727262e-05,0.0002827515076870687,0.10079388367542559
1.02,8.736430636851823e-06,0.0005449484372331864,-0.0072485007637726525,-48.48466169303754,52.848496389434246,4.897653706398222,-1653870.8399763862,5084014.408348384,3593054.673332901,-194.77840914071774,-5260.8990951607,7337.875145930745,0.9949091146862404,-2.9813879642193427e-05,0.0002841017636353641,0.10077584984291528
1.025,-1.1850451611686734e-05,0.0005436745141204576,-0.007211888640155168,-48.490436107703395,52.81638693529725,4.891964981728066,-1653871.8131027287,5083988.103846292,3593091.363178854,-194.47212783370568,-5260.901741807021,7338.0632352214725,0.9949109403201233,-2.9934592135442294e-05,0.00028545885979470217,0.1007578207807595
1.03,1.3950079567149985e-05,0.0005247765008592331,-0.007216319741514197,-48.46921399857972,52.801211818162834,4.886126436352583,-1653872.78469774,5083961.799331105,3593128.0539648985,-194.16587678019764,-5260.904332793424,7338.251182528235,0.9949127564040746,-3.010616288232955e-05,0.0002868076042765867,0.10073988276478982
1.035,1.2211278617374674e-05,0.0005428218472345287,-0.0072404077300288515,-48.46450194344626,52.770575149619056,4.89747515923807,-1653873.7547617978,5083935.494802866,3593164.745690551,-193.85974633961564,-5260.906962878343,7338.439078533164,0.9949145732940975,-3.0208804143475295e-05,0.0002881158415012186,0.10072193367739732
1.04,2.3420362749458214e-06,0.0005328644081471489,-0.007216339835470066,-48.451477552428116,52.758448284092104,4.884806011198771,-1653874.7232954446,5083909.190261722,3593201.4383554845,-193.55371235311196,-5260.9094949924665,7338.626894820618,0.9949163959097918,-3.0320331546553796e-05,0.0002894685229188044,0.10070392464309628
1.045,3.689753005325036e-06,0.0005576289180030499,-0.007225460536227176,-48.429309410353184,52.72560337682354,4.880727151151818,-1653875.6902990956,5083882.885707776,3593238.1319593373,-193.24774798364834,-5260.9120833216475,7338.814646323871,0.9949182121459162,-3.045388231695138e-05,0.0002907939543385947,0.10068597544748138
1.05,8.8614882146973e-06,0.0005380228729780019,-0.0072106577610217834,-48.4355836778438,52.70676148905404,4.868644705846891,-1653876.6557733216,5083856.581140905,3593274.826501654,-192.94194251490214,-5260.914665172561,7339.002280458036,0.9949200303338792,-3.059032113525494e-05,0.000292181320863785,0.10066800353012395
1.055,1.685318431569052e-05,0.0005431165966756043,-0.007208449506263011,-48.41147588723194,52.68127366366013,4.879914401358777,-1653877.6197185104,5083830.276561127,3593311.521981876,-192.63613292549027,-5260.917245942181,7339.189808160005,0.9949218444853036,-3.070895121991205e-05,0.0002935212238787077,0.10065006839646289
1.06,1.2797961410174526e-05,0.0005240235600957549,-0.007216167718522342,-48.40986456505093,52.66255780264926,4.877284928472778,-1653878.5821350862,5083803.9719685605,3593348.218399628,-192.33049738859884,-5260.91978057636,7339.377292887764,0.9949236577529226,-3.0808983600643344e-05,0.00029487580752161284,0.1006321387162675
1.065,5.937865507363731e-06,0.0005309493619218566,-0.007201992599391088,-48.3941117011278,52.63167213774181,4.874774336923826,-1653879.543023592,5083777.667363375,3593384.9157546223,-192.0249049803311,-5260.922293291478,7339.564704636374,0.9949254726508241,-3.091430482133163e-05,0.0002961818799747893,0.10061418981005656
1.07,1.2148555958390234e-06,0.000556112597704829,-0.007215265519044483,-48.39334433519189,52.61480289418592,4.873423535339324,-1653880.5023844575,5083751.362745681,3593421.6140463986,-191.71944116049733,-5260.924784674148,7339.7520060175475,0.9949272836526212,-3.1038420831136774e-05,0.00029750345451094024,0.10059627613350139
1.075,7.4024409290552835e-06,0.0005556080697386632,-0.0072030411955308245,-48.38330526852155,52.58578343255054,4.871073971069275,-1653881.4602180978,5083725.05811559,3593458.3132745256,-191.41401497802613,-5260.927251617391,7339.939244766647,0.9949290976483842,-3.118062265074672e-05,0.0002988864291015294,0.10057832941167442
1.08,5.343573926417989e-07,0.0005492728368324428,-0.007206669728906186,-48.37905787021976,52.568403173605034,4.86912286650205,-1653882.4165248566,5083698.753473238,3593495.0134385787,-191.10868860055456,-5260.929689145584,7340.126376450001,0.9949309082461525,-3.130729794278013e-05,0.0003002697054659651,0.10056041305823665
1.085,2.177969003934487e-05,0.0005057025315845695,-0.007212953104774425,-48.35355434307111,52.546969312113845,4.868331807336884,-1653883.3713051172,5083672.4488187395,3593531.7145381314,-190.8034156185111,-5260.932110525446,7340.313444642399,0.9949327194356654,-3.144946643582297e-05,0.0003016354970075449,0.10054248765228307
1.09,-1.4868965556204023e-05,0.000516052234051528,-0.00721070119649127,-48.34184942159998,52.510378255916955,4.8605985694109455,-1653884.3245594066,5083646.144152099,3593568.416572877,-190.4983001461824,-5260.934545428677,7340.500453709542,0.9949345319140982,-3.152784379816219e-05,0.0003028982542973566,0.10052454657205377
1.095,-9.465678037465502e-06,0.0005472941942810358,-0.007213328027136911,-48.33611333362799,52.48501655708295,4.856452942769115,-1653885.2762884037,5083619.839473341,3593605.1195422895,-190.1932986173779,-5260.936958163357,7340.687311241774,0.9949363434908309,-3.169997797532378e-05,0.0003041775446329379,0.10050661108717278
1.1,1.6593472248601723e-05,0.00053729923082187,-0.007194555654586901,-48.32501518312173,52.46982340372516,4.859518600397801,-1653886.2264925716,5083593.5347825745,3593641.823445738,-189.88836865628724,-5260.939348173819,7340.874067916191,0.9949381553790723,-3.1866524380728275e-05,0.0003055359017303969,0.10048866902903304
1.105,-6.416319363418831e-07,0.0005247276421898036,-0.0071915606064176536,-48.31675102416609,52.44207847567368,4.86048875686445,-1653887.1751723066,5083567.2300799005,3593678.5282828817,-189.58352530525306,-5260.941721337559,7341.06078965826,0.9949399622364538,-3.196572737792634e-05,0.00030687594592077185,0.10047077361237997
1.11,9.683670721280108e-06,0.0005404211741950701,-0.007200284169385601,-48.312862439951246,52.41839354279414,4.8510547572919736,-1653888.1223280593,5083540.925365469,3593715.234053399,-189.2787757091965,-5260.944051239787,7341.2474172677985,0.994941768026322,-3.210464010863932e-05,0.00030818039125029444,0.10045288562701993
1.115,1.2548698157520993e-05,0.0005426620447774163,-0.007220088107307852,-48.29898408896743,52.38907528563611,4.853628094069577,-1653889.0679601973,5083514.620639393,3593751.940756778,-188.9740795664077,-5260.94637926884,7341.43393449388,0.9949435756719348,-3.2221818014217475e-05,0.00030952646417168093,0.10043497590116424
1.12,1.0085920848535257e-06,0.000524562941718958,-0.007202975449839135,-48.27456529464231,52.37443878742284,4.847325083298575,-1653890.0120691643,5083488.3159017805,3593788.6483925153,-188.6695072365127,-5260.948665602497,7341.620360318314,0.994945387963465,-3.233244753673659e-05,0.0003108788286185088,0.10041701688059171
1.125,1.740336064019012e-05,0.0005144630746278269,-0.007179782949326302,-48.27048496057689,52.3436310106161,4.852406022594208,-1653890.954655603,5083462.011152616,3593825.3569602617,-188.36506823797964,-5260.951000537358,7341.806738282624,0.994947195646956,-3.246722454222301e-05,0.0003121832782416206,0.10039910040303188
1.1300000000000001,1.1505712389499974e-05,0.0005330269199908094,-0.007187052823992483,-48.25865298600159,52.31575947447517,4.845010728583488,-1653891.8957200611,5083435.706391963,3593862.0664596516,-188.06071497400686,-5260.953260424469,7341.993017683973,0.9949489971951232,-3.2558668569954684e-05,0.00031346672260973267,0.1003812415691587
1.135,-5.999864383454101e-06,0.0005288139845937161,-0.007164131657133584,-48.24014223574822,52.29070601824978,4.842321202588122,-1653892.8352630008,5083409.401620019,3593898.7768901507,-187.75646090353172,-5260.955517010201,7342.17918193559,0.994950800230072,-3.2669446586938574e-05,0.00031479486144964997,0.10036336462296387
1.1400000000000001,-1.4088582158317927e-05,0.0005332738278638796,-0.007178451269249468,-48.24170258188557,52.262059400963466,4.849599383977711,-1653893.7732849955,5083383.096836797,3593935.4882512586,-187.45233697097376,-5260.957771888781,7342.365261172755,0.9949525971938566,-3.2822692462800294e-05,0.0003161081306046916,0.10034554467199847
1.145,3.369132152032758e-05,0.0005490921475873199,-0.007180382211080068,-48.22889052409663,52.24386626707644,4.83447934275385,-1653894.7097865187,5083356.792042526,3593972.2005425417,-187.14827235306967,-5260.959936420782,7342.551252049723,0.9949543974241725,-3.299718818481649e-05,0.0003174304626471862,0.100327689076291
1.1500000000000001,6.808231299224274e-06,0.0005389673371540894,-0.007155641320729519,-48.217324536752876,52.21619208696384,4.83353240939738,-1653895.6447679098,5083330.487237304,3594008.9137635375,-186.84428399963292,-5260.962152332642,7342.737146271164,0.9949561978078436,-3.3056805903969525e-05,0.00031880412481276836,0.10030982860585931
1.155,-6.463046693343554e-06,0.0005342827007814488,-0.007188361983556828,-48.20177514721655,52.188139176834184,4.8384503586470515,-1653896.5782296236,5083304.182421075,3594045.627913763,-186.54040156393202,-5260.964339368611,7342.922943971832,0.9949579916716235,-3.3180733591774455e-05,0.0003201458629673612,0.10029202966554764
1.16,-2.702895104778642e-05,0.0005580966543789743,-0.007162522040887673,-48.18208633004229,52.16170681152644,4.830326363232464,-1653897.510172255,5083277.877594022,3594082.342992781,-186.23665108666614,-5260.966481705779,7343.108663243721,0.9949597934204493,-3.3336523788341483e-05,0.0003214726182547064,0.10027414931461098
1.165,2.8558109697876806e-06,0.0005339039696070348,-0.007146441379912909,-48.18372398602636,52.12817743371946,4.826620218925857,-1653898.4405964618,5083251.57275621,3594119.059000133,-185.93303149630526,-5260.968642987112,7343.294277634452,0.9949615883486955,-3.3549418636744736e-05,0.0003228534548360062,0.10025633322002311
1.17,4.292096242643744e-06,0.0005533651786714505,-0.007144944778276985,-48.166216984133825,52.12767136381479,4.819802393946753,-1653899.3695027041,5083225.267907739,3594155.77593521,-185.6294655023965,-5260.970745805951,7343.479753038634,0.9949633789483429,-3.3681901344743314e-05,0.00032418160602364147,0.1002385570701825
1.175,7.472220955094846e-07,0.000529509273963634,-0.007155735312001461,-48.156211441599794,52.091536811714214,4.820709499293444,-1653900.2968913072,5083198.963048581,3594192.493797669,-185.32597569981664,-5260.972917452871,7343.665230666845,0.9949651688379338,-3.381568710966885e-05,0.0003255585251369713,0.10022078460802429
1.18,2.869967475452535e-05,0.0005613715129453974,-0.0071648761979316335,-48.13840709273724,52.074994448340874,4.827523141351641,-1653901.222762752,5083172.658178711,3594229.2125871987,-185.02260231326872,-5260.975030246842,7343.85058122156,0.9949669611304693,-3.395232206814745e-05,0.00032687521557264325,0.10020298527804608
1.185,-1.587823937170562e-05,0.0005291914848571515,-0.007175562484884336,-48.12856519618052,52.03323118619091,4.817992330846028,-1653902.14711764,5083146.353298331,3594265.93230342,-184.71935273845918,-5260.977121919766,7344.0359072231895,0.9949687553685215,-3.4027416796970145e-05,0.00032827816211281443,0.10018516315302665
1.19,-7.3085017204170476e-06,0.0005163750642865835,-0.0071490595461874236,-48.113005757337696,51.99900166517494,4.8178825972761015,-1653903.0699565606,5083120.0484075695,3594302.652945823,-184.4162155570145,-5260.979182582501,7344.221053996143,0.9949705519841471,-3.4205344460902146e-05,0.0003295898972175919,0.10016731445364688
1.195,2.348078997595051e-06,0.0005439752032879211,-0.007125408986959102,-48.103312401870404,51.98734203195235,4.81524999214613,-1653903.9912801369,5083093.743506603,3594339.374513666,-184.1132149641751,-5260.981204201342,7344.406083158829,0.9949723416535393,-3.4358724218483644e-05,0.0003308719005988822,0.10014953164012401
1.2,5.170060837946327e-06,0.0005220083265464175,-0.00712749573446201,-48.098305822460816,51.96542838628504,4.805665928668167,-1653904.9110888764,5083067.438595501,3594376.09700656,-183.81028087171208,-5260.98323654169,7344.5910744584025,0.9949741250609244,-3.449497467746265e-05,0.00033222497709817396,0.10013180761331204
1.205,-1.4081875963890243e-05,0.0005339952590957175,-0.007115222949924685,-48.07712245137302,51.928732897299554,4.805175199325713,-1653905.829383083,5083041.133674225,3594412.8204241535,-183.50740171861372,-5260.985273779844,7344.775962933337,0.9949759086915856,-3.461870840363679e-05,0.000333524118551911,0.10011407836344006
1.21,7.813664653684591e-06,0.0005286562647788887,-0.007132069763261648,-48.0701108807472,51.90704762569838,4.807411500881677,-1653906.746163308,5083014.828742842,3594449.544765879,-183.20468827141752,-5260.987279231716,7344.96072728286,0.9949776889217861,-3.4793320070646274e-05,0.00033484825925951094,0.10009637962448859
1.215,-1.3483042652752577e-05,0.0005456468799751123,-0.007131296120543903,-48.0516512925678,51.87997529478012,4.79550335444634,-1653907.6614301624,5082988.523801525,3594486.2700312585,-182.90205349556695,-5260.989247631551,7345.1454244046945,0.9949794730567945,-3.491214585836996e-05,0.00033616459710522444,0.10007863893024006
1.22,3.4385652909220564e-06,0.0005361959377060294,-0.007147665116976708,-48.04227271210655,51.851491301672276,4.8009341299960715,-1653908.5751841469,5082962.218850292,3594522.996219825,-182.59954027404928,-5260.991245763361,7345.330002315886,0.994981256664022,-3.5088196445394626e-05,0.00033751786983067766,0.1000609001448095
1.225,8.890078711270621e-06,0.0005479141888320076,-0.00713324620448879,-48.0399214290191,51.82466453179741,4.793587484363793,-1653909.487425829,5082935.913889219,3594559.7233310714,-182.29713264580587,-5260.993183469287,7345.514496282801,0.9949830440566519,-3.521980495193259e-05,0.00033885186521436054,0.10004312059675795
1.23,2.1101519598792757e-05,0.0005317867382636408,-0.007103583019444769,-48.02073581179168,51.80164041076886,4.797402043125477,-1653910.3981556098,5082909.6089185085,3594596.451364491,-181.99477970669275,-5260.995100535874,7345.698871537941,0.99498482751466,-3.5340771649977366e-05,0.00034021637387799525,0.10002537687742619
1.235,3.4549452798153173e-06,0.0005278148028129644,-0.007118897057958454,-48.001858211628175,51.767278012392296,4.797756285229655,-1653911.3073739705,5082883.303938267,3594633.1803196413,-181.69256449715928,-5260.996996127134,7345.883188590728,0.9949866032528595,-3.542730472519812e-05,0.0003415438222674524,0.10000770690332009
1.24,5.996691051591601e-07,0.0005176051104942206,-0.0071202507274117305,-47.99496171955307,51.74862408257674,4.787222080446077,-1653912.2150816354,5082856.998948634,3594669.9101960915,-181.3905014940187,-5260.998857152369,7346.067391405494,0.9949883825054686,-3.555675306740315e-05,0.00034285697715203756,0.09998999881969148
1.245,-2.4134065412420388e-06,0.0005429980868551836,-0.007103698629260838,-47.97957358819518,51.71430768878985,4.787168120091157,-1653913.121279126,5082830.693949645,3594706.6409933288,-181.08849478284426,-5261.00073814593,7346.251503482156,0.9949901617880449,-3.569075280732317e-05,0.00034414402174632133,0.09997228734035651
1.25,-9.301521599967155e-06,0.0005264190555407395,-0.007133892121570171,-47.96901487856236,51.68946908781075,4.769207207648338,-1653914.025966923,5082804.388941352,3594743.372710831,-180.78662399625938,-5261.002579187981,7346.435497478722,0.9949919365953348,-3.583857973151759e-05,0.0003454934790520796,0.09995461700250552
1.2550000000000001,1.0369961849972913e-05,0.000538075604977488,-0.007120065184340198,-47.941293632986785,51.668358528467124,4.772111942495454,-1653914.9291455518,5082778.083923748,3594780.105347969,-180.48482746748695,-5261.004462709012,7346.619357836273,0.994993718644348,-3.599942389397218e-05,0.0003467999722891201,0.09993687153454822
1.26,1.288948148534576e-05,0.000549662291782275,-0.0071143293022693345,-47.937818328101415,51.639553147388845,4.776701842357489,-1653915.8308156263,5082751.7788967155,3594816.838904294,-180.18320233100604,-5261.006350210487,7346.803172181187,0.9949954969128384,-3.6114235848520184e-05,0.00034814037690981595,0.09991916041087273
1.2650000000000001,1.1927958379058184e-07,0.0005434293301056956,-0.007086301112314979,-47.92899632602151,51.611164921983914,4.776542130190789,-1653916.7309777713,5082725.47386042,3594853.57337946,-179.88165573419144,-5261.008167708377,7346.986894024053,0.9949972734218138,-3.6225669852650513e-05,0.00034951023306122,0.09990146352008208
1.27,-1.0367614794475715e-05,0.000536310069313998,-0.007079870007446813,-47.91292653920715,51.57985727173032,4.776663009418995,-1653917.6296324227,5082699.168815137,3594890.3087729854,-179.5802048181882,-5261.009945792863,7347.170516172391,0.9949990426195622,-3.6367288440151876e-05,0.00035086139778586203,0.09988383632928093
1.2750000000000001,-2.4784698003466434e-06,0.0005222088612156492,-0.00709467082223113,-47.89193348912752,51.54718339956244,4.767630110831509,-1653918.526780154,5082672.863761044,3594927.0450843596,-179.2788876657104,-5261.011691456166,7347.354033458126,0.9950008099028853,-3.653320975208095e-05,0.00035219223516226995,0.09986622511418174
1.28,1.2200768821937081e-05,0.0005300297072158856,-0.007089756025545103,-47.887321823238665,51.51883040573994,4.768254806080501,-1653919.4224216659,5082646.558698196,3594963.78231299,-178.97771704583496,-5261.01344770547,7347.537418751915,0.9950025805804913,-3.6675999234107164e-05,0.0003534899639398226,0.09984857704484118
1.285,2.1660887626807365e-05,0.0005546817244540184,-0.00710786676708953,-47.864963095800945,51.49361743625302,4.774459508628391,-1653920.3165575187,5082620.253626694,3595000.5204582945,-178.67662410111558,-5261.015152920884,7347.720703159797,0.9950043497111702,-3.6784221911297706e-05,0.00035481081171387564,0.0998309411558372
1.29,1.2852114640075529e-06,0.0005228039831582887,-0.007107960469657252,-47.86151227585452,51.47409700671203,4.756316020188453,-1653921.209188304,5082593.94854674,3595037.259519877,-178.37569001647194,-5261.016828598514,7347.903929627903,0.9950061230256669,-3.687508107836417e-05,0.0003561953409024093,0.09981326017388199
1.295,1.4711388246031444e-06,0.0005402753195651506,-0.007102237446589889,-47.83908611790164,51.435718789646714,4.763495183941117,-1653922.1003145003,5082567.643458306,3595073.999497295,-178.0747884915761,-5261.018545087414,7348.087037697177,0.9950078960740574,-3.700867057030157e-05,0.0003574954891930785,0.09979557894822425
1.3,-7.649086672979616e-06,0.0005095891171572057,-0.007090601608400359,-47.84403302641715,51.41068394766219,4.7518938562657755,-1653922.9899366489,5082541.338361449,3595110.7403899822,-177.77407095793382,-5261.020198090978,7348.270037117664,0.9950096673633217,-3.714615134295028e-05,0.0003588391445808447,0.09977791192525343
1.305,1.0362645055822354e-05,0.0005086719157485646,-0.007097280607643816,-47.81314263183404,51.38719815779482,4.761439694845235,-1653923.8780552426,5082515.033256362,3595147.4821973424,-177.47336654076085,-5261.021836288575,7348.452907099309,0.9950114354618789,-3.729865393370727e-05,0.0003601041932728521,0.09976027382616617
1.31,-4.839807866481278e-06,0.0005467658325730857,-0.0070768269505300475,-47.80442494316501,51.361528767428936,4.762513310308437,-1653924.76467081,5082488.728143139,3595184.2249189666,-177.17286043388285,-5261.0234532169825,7348.6357424529515,0.9950132049141198,-3.740612907724534e-05,0.0003613714518017179,0.09974261906520887
1.315,-3.3751671121867297e-06,0.0005663095034670735,-0.007103901038064645,-47.786368095267235,51.32327015512545,4.740269866566125,-1653925.6497840765,5082462.423021926,3595220.9685545536,-176.87244615913804,-5261.025031879923,7348.818492423445,0.9950149689161861,-3.756090130164976e-05,0.0003627296811737309,0.09972501516208616
1.32,-8.886142798112064e-06,0.0005144178217754113,-0.007075842579116969,-47.76826819282819,51.304869054422525,4.747578568903171,-1653926.5333955875,5082436.1178927105,3595257.7131034057,-176.57215821959016,-5261.026654268588,7349.001048308193,0.9950167393360073,-3.7716927199109126e-05,0.0003641368886547697,0.09970734387646658
1.325,1.5978294688969178e-06,0.0005267542912902227,-0.007064455571948574,-47.76132458527114,51.264182344794904,4.745025298743426,-1653927.415505981,5082409.812755451,3595294.45856496,-176.2719992255093,-5261.028249679388,7349.183573501973,0.9950185024940417,-3.787370137015772e-05,0.0003654136422247874,0.09968974236584068
1.33,-1.2855040196732434e-05,0.0005192341263105913,-0.007058665145321186,-47.74771973985513,51.246576137962954,4.746099425363162,-1653928.2961158447,5082383.5076103695,3595331.2049387456,-175.97194628684434,-5261.029782929452,7349.365940652827,0.9950202624913309,-3.800746030957515e-05,0.00036672369715798586,0.09967216913886241
1.335,1.3392889232097305e-05,0.0004954436347931143,-0.007062222546047033,-47.737895889872874,51.211862355533356,4.745523792663689,-1653929.175225692,5082357.202457646,3595367.952224245,-175.67199263448725,-5261.031306384236,7349.548259137004,0.9950220207394704,-3.817529229589241e-05,0.00036801144436295925,0.0996546102985944
1.34,-4.51878871290282e-06,0.0005129066489349404,-0.007064861497441,-47.71912168984602,51.18160803374674,4.743480971896961,-1653930.0528360482,5082330.897297431,3595404.700421022,-175.37214978317976,-5261.032779479964,7349.730451708637,0.9950237795866681,-3.8271907293312806e-05,0.0003692465502737586,0.09963704255600896
1.345,2.0687521646231292e-06,0.0005339253630547608,-0.0070594332094404254,-47.70272110586903,51.16178024465064,4.736894637578558,-1653930.9289475428,5082304.592129891,3595441.4495285004,-175.07244803494987,-5261.034236545634,7349.912539719651,0.9950255387615096,-3.841743098622116e-05,0.00037052063443562214,0.09961946823250999
1.35,-1.0782042094727719e-05,0.000517528326392108,-0.007040826496487749,-47.68741614851956,51.125702885603225,4.724511204799574,-1653931.8035607934,5082278.286955013,3595478.199546227,-174.77285223667994,-5261.035714614023,7350.094550876483,0.9950272962537402,-3.8551797393142324e-05,0.0003718486450143552,0.09960190737287998
1.355,-2.244151076732245e-05,0.000519173033915479,-0.007058632807879205,-47.66472356329056,51.08942106091567,4.7327951077865515,-1653932.6766763718,5082251.981772735,3595514.9504736094,-174.47337910571127,-5261.037196877542,7350.276402053927,0.9950290488159875,-3.8714030778165304e-05,0.00037313266861354694,0.09958439278113115
1.36,3.200719238188418e-06,0.0005491516607296692,-0.007037800022779341,-47.66238649576212,51.06989594305862,4.724399222168485,-1653933.5482950413,5082225.676583201,3595551.702310005,-174.17408867785613,-5261.038616524607,7350.458156224588,0.9950308054979029,-3.890569400444024e-05,0.000374417878949461,0.09956683387450671
1.365,3.1809221298310507e-07,0.0005305131370117171,-0.007058373539181552,-47.6431536160382,51.03547402427796,4.728019151121892,-1653934.4184173583,5082199.371386569,3595588.455054941,-173.8748381800076,-5261.040036239747,7350.639818154004,0.995032556657896,-3.9041012888661995e-05,0.000375784048126841,0.09954932673302964
1.37,-2.6483872450230877e-06,0.0005221381609600907,-0.0070434658480525375,-47.631887099192475,51.01681973705176,4.707332416481401,-1653935.2870438176,5082173.066182956,3595625.2087079235,-173.57574553858856,-5261.041408863563,7350.821374768491,0.9950343126445739,-3.917888322680485e-05,0.0003771031329251128,0.09953176838669459
1.375,6.362820765264472e-06,0.0005088586242882309,-0.007057409712810937,-47.613274585356656,50.97891809916228,4.711728452853915,-1653936.1541749705,5082146.760972309,3595661.9632683992,-173.2767155680641,-5261.0428502039695,7351.002815634466,0.9950360646184827,-3.9322034929999784e-05,0.0003784006474470212,0.09951424709703797
1.3800000000000001,2.003101821475506e-05,0.0005376300693890559,-0.007054480971248226,-47.59669121405596,50.94669209808638,4.706378091643153,-1653937.019811379,5082120.455754602,3595698.718735785,-172.97784786610487,-5261.044232144118,7351.184138679817,0.9950378197640825,-3.943947986171283e-05,0.0003796673682941653,0.09949669108245904
1.385,-6.412253039338359e-06,0.0005269007323852748,-0.007034260249711541,-47.58900948737322,50.9172706632542,4.707827048817162,-1653937.8839537753,5082094.150530017,3595735.475109477,-172.67911065376563,-5261.045602010619,7351.3653380522055,0.9950395738438946,-3.9530077726675786e-05,0.000381009060852348,0.09947914230646103
1.3900000000000001,7.73155682198071e-06,0.0004983606610333836,-0.007039132665170285,-47.56864820007544,50.8901115989181,4.706724550326467,-1653938.7466027213,5082067.845298709,3595772.2323889146,-172.38046769453786,-5261.04692121661,7351.546436893676,0.995041322592093,-3.968376820892562e-05,0.0003823174886178442,0.09946164382672716
1.395,-5.005317219646687e-06,0.0005119344847225505,-0.007030445195467542,-47.55514148186586,50.857611892161486,4.711108439990214,-1653939.6077588117,5082041.540060828,3595808.9905736255,-172.08196855026725,-5261.048230947858,7351.7274475857,0.9950430722709485,-3.979518254164951e-05,0.0003835584363215949,0.09944413318472557
1.4000000000000001,-7.053928106514398e-06,0.000523034464366622,-0.007030410380604105,-47.538286046145274,50.8356871686734,4.698165323542998,-1653940.4674227308,5082015.234816543,3595845.7496631397,-171.78359903594793,-5261.04948329583,7351.908358150169,0.9950448194663701,-3.994164747006712e-05,0.00038482998459997506,0.09942664413368635
1.405,-1.0203172242719962e-05,0.0005168471124656921,-0.007003714711721407,-47.53492847920905,50.80080006336877,4.704984523575952,-1653941.3255950608,5081988.929565891,3595882.50965695,-171.48533301027763,-5261.050777702189,7352.089165823213,0.9950465663332011,-4.009596758611497e-05,0.0003861286359891312,0.09940915513923439
1.41,-1.175951543998332e-05,0.0005217659793561938,-0.007022592198690121,-47.507158684536336,50.77347564659172,4.691442430836433,-1653942.1822762894,5081962.624309,3595919.2705545197,-171.1871584308422,-5261.051978865421,7352.269862162922,0.9950483062633011,-4.02565583326763e-05,0.00038741111551737035,0.099391732526266
1.415,1.7531652080376673e-05,0.0005047900274914722,-0.007021246281971351,-47.498610147233165,50.73764524925748,4.688227273140979,-1653943.0374670485,5081936.3190459665,3595956.0323552773,-170.8891451907721,-5261.053234288836,7352.450440878016,0.9950500505715875,-4.042226117857652e-05,0.00038870544258231453,0.09937426292356048
1.42,3.3325716430624532e-06,0.0005316240623367864,-0.007037564596287395,-47.479276842448684,50.705927771133524,4.682666985056457,-1653943.8911680002,5081910.01377677,3595992.795058581,-170.5912354736981,-5261.054444434523,7352.630880585892,0.995051794256671,-4.0510879827980684e-05,0.0003899648168288966,0.09935679661145455
1.425,-9.304925361148795e-06,0.0005036005548192978,-0.00700481537358993,-47.46170727751017,50.67651659966103,4.687433815353478,-1653944.7433797573,5081883.708501534,3596029.558663783,-170.29346732840168,-5261.055650022887,7352.811200256119,0.9950535416585214,-4.064150178424621e-05,0.0003912874155001465,0.0993392896857028
1.43,-1.4060971421449092e-05,0.0005073013202290845,-0.007003071679888868,-47.44159326772802,50.652555214920184,4.681971027868572,-1653945.5941030304,5081857.403220378,3596066.3231703755,-169.9958419896271,-5261.056812062325,7352.9914367204865,0.9950552806450373,-4.079656956907662e-05,0.0003925371666516777,0.09932186421246184
1.435,2.1200184795123523e-05,0.0005047991025269287,-0.007012425138637705,-47.43011574894572,50.618856174732706,4.682178429569578,-1653946.4433385055,5081831.097933376,3596103.0885779313,-169.69834795704173,-5261.0579886017595,7353.171585522004,0.9950570188878003,-4.0964385869335266e-05,0.0003937949430770797,0.09930444305057949
1.44,-6.39384811745941e-06,0.0005277208987489523,-0.007008192673403411,-47.40810409377051,50.59064451683214,4.669035755434387,-1653947.291086803,5081804.792640612,3596139.854885935,-169.40097113066014,-5261.0591172341765,7353.351615883891,0.9950587591517318,-4.104387300951545e-05,0.00039505524777356675,0.0992869985555388
1.445,2.5418412208083147e-05,0.0005221995164557798,-0.006995952661787028,-47.40477773614485,50.557184616908366,4.660610211085459,-1653948.1373485606,5081778.487342107,3596176.622093778,-169.10373186449456,-5261.060284688386,7353.531521398626,0.9950604980323267,-4.119768975812128e-05,0.0003963657247958425,0.09926956458361619
1.45,-2.4575470669710855e-05,0.000538921839259367,-0.006989603341240323,-47.37817320261393,50.53058950472714,4.667182139867942,-1653948.9821242944,5081752.182037841,3596213.390200778,-168.80656168919836,-5261.061422117843,7353.7112786573725,0.9950622335773835,-4.127098629318383e-05,0.0003976703626561678,0.09925216099902856
1.455,2.332769284955343e-05,0.000523894792183786,-0.006995377622503793,-47.36725892776109,50.49167547031081,4.659326012944587,-1653949.825414629,5081725.876727951,3596250.159206416,-168.50957211454573,-5261.0625337334595,7353.890976503434,0.9950639672193334,-4.147279338180382e-05,0.00039900419542678,0.09923477322683269
1.46,-2.2339319455801256e-05,0.0005158984199193946,-0.006989289957835624,-47.35163782295246,50.466592972429524,4.660772930637642,-1653950.6672202996,5081699.571412576,3596286.9291101363,-168.2126961407944,-5261.063616006597,7354.070511682771,0.9950657020079182,-4.15517114237345e-05,0.0004003125294422904,0.09921737101346181
1.465,-1.8170647161812026e-06,0.0004986210540459815,-0.006980321085276616,-47.33522964176627,50.433121455800865,4.664307243917939,-1653951.5075418954,5081673.2660918515,3596323.6999113415,-167.91594215416828,-5261.064673690704,7354.249970279953,0.9950674349840005,-4.174224410707519e-05,0.000401589644275464,0.09919998396020335
1.47,-1.0830971666633997e-05,0.0005400499025451177,-0.006981769623732108,-47.31640571805556,50.40326452320143,4.651276264294026,-1653952.346380079,5081646.960765965,3596360.4716095785,-167.6193313212205,-5261.065680901102,7354.429324638647,0.9950691654502701,-4.1877430418576397e-05,0.000402828869079495,0.09918261916931863
1.475,1.3357423222271006e-05,0.0005430377965639407,-0.006986775335164859,-47.29529967087131,50.371161295010324,4.65166189424539,-1653953.183735524,5081620.655434973,3596397.244204253,-167.32284674142096,-5261.06671614793,7354.608545074406,0.9950708959282766,-4.2045314382420285e-05,0.0004041689199754892,0.09916525074930646
1.48,7.040274697302362e-06,0.000493748385535605,-0.0069798365013369985,-47.293475423191815,50.35571511542909,4.653590468714619,-1653954.0196089407,5081594.350098867,3596434.0176947704,-167.02651991492817,-5261.067726019302,7354.7876618590735,0.9950726273415905,-4.215377120989714e-05,0.00040552239975792236,0.09914786982153038
1.485,-1.4034638354670874e-05,0.0005098848718202866,-0.006964264040144111,-47.27135537483432,50.310748495522475,4.65652138362384,-1653954.854000832,5081568.044757794,3596470.792080753,-166.7302365116245,-5261.068703363757,7354.966731283853,0.9950743567793171,-4.2265718693592604e-05,0.0004067516979584346,0.0991305061365757
1.49,-3.320624490764327e-05,0.000526466770398801,-0.006967921288080185,-47.25870439926772,50.28191133253142,4.640971427267595,-1653955.6869117771,5081541.739411991,3596507.567361713,-166.4341416211399,-5261.069617769374,7355.14565269343,0.9950760820352625,-4.243407713807327e-05,0.0004080159172724645,0.09911318118046566
1.495,-4.981375707835686e-06,0.0004964892068224357,-0.006957725056416164,-47.23350859895686,50.241769264242635,4.644139351200829,-1653956.5183424817,5081515.434061547,3596544.343536925,-166.13814016858376,-5261.070559835771,7355.324432199273,0.9950778078749923,-4.265424102977132e-05,0.00040931663630347113,0.0990958471138256
1.5,6.5789936790364695e-06,0.0005220645798192896,-0.006958774873366545,-47.22224903307991,50.21090302065641,4.637378824995038,-1653957.348293664,5081489.128706509,3596581.120605722,-165.8423327036032,-5261.071455401579,7355.503086432965,0.9950795309192509,-4.279675299220689e-05,0.00041054977369474875,0.09907853835642046
1.5050000000000001,1.8080952444570194e-06,0.0005309604289900614,-0.0069478295335767635,-47.1924008094823,50.2001171140734,4.632904923153561,-1653958.176766064,5081462.823347029,3596617.8985674726,-165.54662731830805,-5261.07233646096,7355.681613939384,0.9950812538957993,-4.291684222819402e-05,0.00041184939813546675,0.09906122694264263
1.51,-1.9293409944568724e-06,0.0005187299350961763,-0.0069588929980958485,-47.190936440399405,50.15334301506241,4.632673751392462,-1653959.0037603187,5081436.517982993,3596654.677421802,-165.25107459664383,-5261.0732781583065,7355.860117884534,0.9950829738496136,-4.305099184488016e-05,0.00041316997232960395,0.0990439427314729
1.5150000000000001,2.0111356296549577e-05,0.0005049871197185269,-0.006978288340711194,-47.16729229650139,50.13542080026498,4.626940786679633,-1653959.829277047,5081410.21261449,3596691.457168199,-164.95561673951659,-5261.074122929667,7356.038440738141,0.9950846962526713,-4.3191422133290726e-05,0.00041445919389080407,0.09902663097271716
1.52,-2.9889137314803755e-05,0.0005304460026559641,-0.006940545640930636,-47.14721615220192,50.091324183086996,4.627102327140765,-1653960.6533168259,5081383.907241672,3596728.2378060566,-164.66029479003615,-5261.075004199633,7356.216702430826,0.9950864231703394,-4.3273639341778796e-05,0.00041571968160808144,0.09900927091236865
1.5250000000000001,1.2201877064878395e-05,0.0005132041178716074,-0.006937221938390074,-47.13475282555371,50.0620199417653,4.62007077894484,-1653961.4758804303,5081357.601864584,3596765.0193348383,-164.36514700838285,-5261.0758311901645,7356.39481018951,0.9950881404110498,-4.348650600557555e-05,0.0004170311314728324,0.09899200476421405
1.53,3.8079900651749967e-06,0.0005005654175518261,-0.006956215428486522,-47.12295447838094,50.02542500450933,4.618286263176262,-1653962.2969685567,5081331.296483379,3596801.801753858,-164.0701035322639,-5261.076650742913,7356.5727977480565,0.9950898565506174,-4.359039149608527e-05,0.00041831010526979047,0.09897474681253515
1.5350000000000001,-8.802027166605928e-06,0.0005367379476503458,-0.006935490813757908,-47.10233471079951,49.99598186601062,4.617412314300313,-1653963.1165817683,5081304.9910981925,3596838.585062477,-163.77518111955672,-5261.077423997421,7356.750649614515,0.9950915771004533,-4.3712051235416216e-05,0.00041955555830675624,0.09895744159042791
1.54,1.8523527921910016e-06,0.0005390118852131726,-0.006939510034825504,-47.08220141961969,49.963289939411204,4.616602410125471,-1653963.9347207407,5081278.6857091775,3596875.3692601123,-163.48040779573617,-5261.078181879407,7356.928404583615,0.9950932921821065,-4.387400838108557e-05,0.00042088788129374187,0.0989401879048128
1.545,1.1495224761521224e-05,0.0005220773238739688,-0.00694578831375499,-47.059893390250224,49.92716436935253,4.598704905555413,-1653964.7513862283,5081252.3803164335,3596912.1543462467,-163.18578724152297,-5261.078915614147,7357.106049220224,0.9950950079555626,-4.401002694704129e-05,0.00042222849602843753,0.09892292417904697
1.55,2.1116181687117956e-05,0.0005304947596244324,-0.006917687551996578,-47.05146079387052,49.890418561847554,4.607130816288278,-1653965.5665789798,5081226.074919922,3596948.9403201784,-162.8913133939079,-5261.079689053028,7357.283523555636,0.9950967249990934,-4.411787515162085e-05,0.0004235293659535321,0.09890564479628072
1.555,8.558015845390018e-06,0.0005213165300067632,-0.006903004732784508,-47.02932415418254,49.86256449239554,4.601072131417617,-1653966.3802996604,5081199.769519778,3596985.727181206,-162.59695885447675,-5261.0803687131265,7357.4608873913385,0.9950984347859034,-4.4203840462084616e-05,0.0004248535581743088,0.09888843527996567
1.56,-2.9884257320413e-08,0.0004987017011580913,-0.006917877699446915,-47.00745181113833,49.82793018374486,4.60431110466957,-1653967.1925489344,5081173.464116205,3597022.514928793,-162.3027506842305,-5261.08106007444,7357.638147476813,0.9951001406524566,-4.431876264017759e-05,0.00042615181414190265,0.0988712622754444
1.565,1.4453134520865716e-05,0.0005058600270559925,-0.006931527525220111,-46.99638710609334,49.80412781547724,4.608632110682173,-1653968.0033275902,5081147.158709279,3597059.3035624167,-162.00871170515595,-5261.081710342446,7357.815302004726,0.9951018499198039,-4.444947531013954e-05,0.00042739168554400725,0.09885405225267982
1.57,2.927691517366415e-05,0.0004979222931462397,-0.006893781778707615,-46.97519672062747,49.76516205820107,4.596845404925823,-1653968.8126363081,5081120.853299208,3597096.0930816447,-161.7147754481085,-5261.082318174776,7357.992389224177,0.9951035622546643,-4.454594142812976e-05,0.0004286529427216248,0.09883680822644554
1.575,8.955448807221887e-06,0.0005233165302506355,-0.006912293420194164,-46.95519121494279,49.73609106990402,4.59677923283789,-1653969.620475731,5081094.547886081,3597132.8834858947,-161.42099373658664,-5261.0829327777,7358.169310716571,0.9951052649742445,-4.4603527740137546e-05,0.00042989811964378626,0.09881965805785234
1.58,1.5304407010508034e-05,0.0005062793120807159,-0.006903918968143917,-46.94371405110847,49.700408343924074,4.5820144789615505,-1653970.426846612,5081068.242469928,3597169.674774518,-161.1273586376494,-5261.083528281749,7358.346138463131,0.9951069719395585,-4.471796255408439e-05,0.0004312014488197094,0.09880246182609574
1.585,-5.363503051521718e-06,0.0005054276432941237,-0.006895250767137501,-46.921103111192544,49.66604411226156,4.587788756982914,-1653971.2317495705,5081041.937050783,3597206.466946858,-160.8338247547933,-5261.084129980692,7358.522797572583,0.9951086765569549,-4.4812385297765986e-05,0.0004324639623978214,0.09878528639345578
1.59,7.140509635079348e-06,0.0005237080533812015,-0.006887634522459756,-46.89585338883694,49.63037050385852,4.573891561111201,-1653972.0351852977,5081015.631628751,3597243.2600022512,-160.54046611470153,-5261.0846826956395,7358.699359868402,0.9951103787345661,-4.495800536702505e-05,0.0004337192538466468,0.09876813251821234
1.595,9.027074591938839e-06,0.0005214201015099365,-0.006880930926491256,-46.892166656987996,49.597082551624474,4.569626674181486,-1653972.837154642,5080989.326203878,3597280.053940069,-160.24727160662982,-5261.085266317276,7358.875767125786,0.9951120787161344,-4.507702378750614e-05,0.0004350231110815084,0.09875099754538613
1.6,7.695372561573434e-06,0.000512136985231285,-0.006901646094108131,-46.878955042128716,49.57040435475156,4.576687031377711,-1653973.6376582023,5080963.020776202,3597316.8487595827,-159.95415250208262,-5261.085804329065,7359.052038466556,0.9951137767489772,-4.519077670124692e-05,0.00043632174277128744,0.09873387921841983
1.605,1.7356520936349465e-05,0.0005129759874629776,-0.0068838018415059874,-46.8545088271062,49.53799979923037,4.57045810677636,-1653974.4366964693,5080936.715345974,3597353.6444602795,-159.66115434470643,-5261.086286758082,7359.228240152089,0.9951154796079941,-4.530557379008645e-05,0.00043759694888797747,0.09871670932961289
1.61,-1.5115898098071404e-05,0.0005123701591807739,-0.0068683791238680104,-46.83668885307116,49.499605366688876,4.571200599764393,-1653975.234270157,5080910.409913318,3597390.441041682,-159.36832072719224,-5261.0867757328,7359.404320875277,0.9951171777662523,-4.539652350702249e-05,0.00043887662844733165,0.09869958379339698
1.615,8.042341393067453e-06,0.0004815935730475563,-0.006885812665607713,-46.81217545281511,49.47242400655556,4.560993929351483,-1653976.0303800625,5080884.104478338,3597427.23850316,-159.07564149746503,-5261.0872164225775,7359.580270385099,0.9951188718202526,-4.556809145625384e-05,0.0004401467899156845,0.09868249663207794
1.62,-1.7067279397569013e-05,0.0004812331314643891,-0.006843002960344056,-46.7929109528634,49.432555747494725,4.556769758991809,-1653976.825026948,5080857.799041067,3597464.0368441087,-158.78311264882132,-5261.087691475664,7359.7561090224035,0.9951205699160338,-4.5674472796455595e-05,0.0004413460966452721,0.09866536604834424
1.625,-1.4604317397799635e-06,0.0005061303262763963,-0.006853681914264316,-46.7758776510249,49.39274121685288,4.549448824353719,-1653977.6182115818,5080831.493601495,3597500.8360638754,-158.49074088826515,-5261.088137390777,7359.931797697719,0.9951222571552483,-4.5843185731025904e-05,0.00044253831780061885,0.09864834196520224
1.6300000000000001,8.866058474663269e-06,0.0005151745452760421,-0.006864662468706941,-46.755246151630644,49.36341878995817,4.55659524957411,-1653978.4099347142,5080805.188159747,3597537.636161685,-158.19851206993891,-5261.088561914585,7360.107326085758,0.9951239467091476,-4.597922383050355e-05,0.0004437963259575328,0.09863129126571177
1.635,-6.443170062441949e-06,0.0005157117935615873,-0.006845615894275631,-46.735753134425195,49.327657738887254,4.544960427626156,-1653979.2001971002,5080778.882715994,3597574.437136951,-157.90644227665777,-5261.088939521136,7360.282780242751,0.995125638667525,-4.609181386245764e-05,0.0004450793793059547,0.09861421320702939
1.6400000000000001,-2.3410645531365142e-05,0.0005010926628036316,-0.006853501918980005,-46.70755350155229,49.29227036918244,4.547541352916525,-1653979.9889994902,5080752.577270327,3597611.2389891027,-157.61451373418473,-5261.089327044829,7360.458080566548,0.9951273256339556,-4.624260165306499e-05,0.00044635999702268323,0.09859718252052858
1.645,2.0617561492738436e-06,0.0005110465809808266,-0.006853466012368984,-46.70031071427461,49.259242020064015,4.539593072318711,-1653980.7763427324,5080726.271822792,3597648.0417174925,-157.3227831280045,-5261.089687082453,7360.633275355016,0.9951290142651786,-4.643200671350398e-05,0.00044760006159170595,0.0985801322065842
1.6500000000000001,-1.1701875866003296e-05,0.0005192243925545043,-0.0068811995080879625,-46.68441601368772,49.222743392864835,4.542195906931566,-1653981.5622275365,5080699.966373514,3597684.8453215,-157.0311385731006,-5261.090023830705,7360.808327737054,0.9951307025856421,-4.6560494051548216e-05,0.00044887116729655095,0.09856308192321253
1.655,1.9605380288232195e-05,0.0004903964926081956,-0.006846656210041701,-46.67114588723598,49.20236964552952,4.543461977338398,-1653982.3466544796,5080673.660922692,3597721.64980047,-156.73963867512722,-5261.090305328094,7360.983260146783,0.9951323974341051,-4.6725269105476676e-05,0.00045015922315359895,0.09854596262898623
1.6600000000000001,1.9270014474239885e-06,0.0005158424784455099,-0.006869664064820531,-46.64197949688994,49.165935161835904,4.524687757796725,-1653983.1296241793,5080647.3554705065,3597758.455153951,-156.44824123394886,-5261.090568674899,7361.158132282988,0.9951340835137957,-4.6805015925560475e-05,0.0004513832769787606,0.09852892921160654
1.665,-6.187326825437538e-06,0.0005241210559721175,-0.006853476056634704,-46.62530600911685,49.12762569301605,4.532434250096309,-1653983.9111373336,5080621.050016864,3597795.261381371,-156.15702046472427,-5261.090888209373,7361.332835652291,0.9951357749359395,-4.6935037502867e-05,0.0004526662788184498,0.0985118385423272
1.67,-2.626845049199644e-05,0.0004952709734249323,-0.006827149211233378,-46.60919093560203,49.0820300084257,4.521494704260682,-1653984.691194779,5080594.74456182,3597832.068482027,-155.8659576721581,-5261.091129631446,7361.5074267049595,0.9951374620664784,-4.708726673748243e-05,0.0004539678798017993,0.09849478812527003
1.675,1.1291495537142477e-05,0.0004952778073584288,-0.006840118901023312,-46.58090149747371,49.062898109486746,4.518622807386652,-1653985.4697972713,5080568.439105624,3597868.8764551515,-155.575039280754,-5261.091348617563,7361.681823087325,0.995139142452118,-4.728232081857569e-05,0.0004551927645409365,0.09847780320251091
1.68,-4.948291393683466e-06,0.0004920973342686417,-0.006819058022168394,-46.56687874072731,49.02149703634957,4.5167170394063465,-1653986.2469455777,5080542.133648255,3597905.6853001206,-155.28428321625233,-5261.091599213684,7361.856164722741,0.9951408257432804,-4.738394789634436e-05,0.0004564269116676468,0.09846078594149996
1.685,8.092325683424165e-06,0.0005132096143130742,-0.00681340555063285,-46.54198085245329,48.99342001323169,4.51890747336028,-1653987.0226404513,5080515.828189764,3597942.4950164133,-154.99366626532372,-5261.091797153758,7362.030352268669,0.9951425035603504,-4.75251702360878e-05,0.00045764915115346883,0.09844382106689391
1.69,1.975057325459831e-06,0.0005039668723052402,-0.006829650824667233,-46.5235744281306,48.94729132932986,4.503822104020087,-1653987.796882664,5080489.522730323,3597979.305603444,-154.70321881461192,-5261.091979179697,7362.20446010312,0.9951441796731443,-4.7639138847816554e-05,0.0004589271249157431,0.0984268702086543
1.695,-5.188380326004774e-06,0.0005014036262969494,-0.006805637153079754,-46.510935920023705,48.92545366987889,4.512081532405921,-1653988.569673015,5080463.2172699785,3598016.117060498,-154.4129216136602,-5261.092158471977,7362.3783612847255,0.9951458595022126,-4.776607065869235e-05,0.00046018059669779705,0.09840987891377422
1.7,-2.0665165861322123e-05,0.0004810292849676626,-0.006809816014564683,-46.48344102244184,48.88211531959328,4.508575722794796,-1653989.341012158,5080436.911808864,3598052.929386939,-154.1227355363099,-5261.092287291006,7362.552215175495,0.9951475331347538,-4.7910165870521e-05,0.00046142593182132904,0.09839294734146228
1.705,-1.5893389684498006e-06,0.0005011613137043304,-0.006817068873365512,-46.471911988932625,48.860618135347096,4.498535247776075,-1653990.1109008729,5080410.606347164,3598089.74258226,-153.8327504246548,-5261.092392716399,7362.725913455466,0.9951492075271161,-4.808775837262147e-05,0.00046261677060484323,0.09837600536433608
1.71,7.169034110872945e-07,0.0005097374463116601,-0.006808514724752436,-46.44562736397845,48.81332466395807,4.503072469233348,-1653990.8793398673,5080384.300884887,3598126.5566458283,-153.54284728630566,-5261.092518310029,7362.89951368674,0.9951508833920181,-4.8222852285313295e-05,0.00046386238582172635,0.09835904528984425
1.715,-3.416238660317993e-06,0.0005146055867579594,-0.006801996977320289,-46.43600588119629,48.77174146514803,4.492412308261599,-1653991.646329878,5080357.995422148,3598163.3715770217,-153.25315703688906,-5261.0925772228775,7363.072963741837,0.9951525568535371,-4.8354307466755505e-05,0.00046512990539891757,0.09834210646462554
1.72,-4.2281390203388825e-06,0.0004972840053203688,-0.006792941064591699,-46.41051026968016,48.73729313356731,4.481454382859016,-1653992.4118717082,5080331.689959183,3598200.187375008,-152.96357511267314,-5261.092608491517,7363.246230840826,0.9951542284167977,-4.8497234680339133e-05,0.0004664085208299049,0.09832518383038097
1.725,2.8153503788054245e-05,0.0005044833275120632,-0.006804406203534302,-46.394228814767246,48.707531496593745,4.483313737779299,-1653993.1759660456,5080305.384496007,3598237.004038975,-152.67415975369263,-5261.09266209561,7363.419355977893,0.995155897485118,-4.863791336644675e-05,0.00046764384353526655,0.09830828370070563
1.73,1.7421212562356596e-06,0.00048281650833222474,-0.006783320608951618,-46.373361780701046,48.68186153772377,4.475156234455956,-1653993.938613639,5080279.079032653,3598273.8215683317,-152.3848776792502,-5261.092679543443,7363.592386570417,0.9951575690777033,-4.869981286792848e-05,0.0004689050342898568,0.09829135497974116
1.735,2.978168505038461e-05,0.0004892762891914323,-0.006774920589197834,-46.349757614844734,48.63376788128464,4.478016730055242,-1653994.6998151566,5080252.773569156,3598310.6399625856,-152.095729361749,-5261.0927190557295,7363.7653149736625,0.9951592352225417,-4.8822072202982736e-05,0.000470105832701425,0.09827447872259326
1.74,1.6513969204280457e-05,0.000498479569272018,-0.006777024077872669,-46.33576620022724,48.59195327745984,4.476318590604728,-1653995.4595714328,5080226.468105631,3598347.4592210804,-151.80678107891043,-5261.092691116767,7363.938082997735,0.9951608990121317,-4.887614915353779e-05,0.00047132959221277257,0.0982576233017235
1.745,3.3142968222791082e-06,0.00048686086987325723,-0.006756629037910625,-46.299956489583934,48.568051104732014,4.466868964455617,-1653996.217883317,5080200.162642382,3598384.279343027,-151.51797261477154,-5261.092608513472,7364.110695652945,0.9951625630188722,-4.896549807972388e-05,0.00047257298905675245,0.09824076263374233
1.75,2.4984367824379384e-05,0.0005001007161008009,-0.006802507391541125,-46.29340759422667,48.530004143460275,4.470248720205461,-1653996.974751649,5080173.857179392,3598421.1003278205,-151.2293602008547,-5261.092587576412,7364.283221697441,0.9951642217423488,-4.9084808871227376e-05,0.0004737842401600209,0.0982239526954642
1.7550000000000001,-7.903985789437942e-06,0.000500034334877431,-0.006763415519957507,-46.26171324183548,48.48505540994141,4.469579987311769,-1653997.7301771846,5080147.5517167095,3598457.9221749143,-150.94085395408473,-5261.092485473527,7364.455615825709,0.9951658914312885,-4.915351196636959e-05,0.000475033746349875,0.09820702856028736
1.76,3.0234485195449963e-06,0.0005024406568859233,-0.006776643291495409,-46.24643659859325,48.45694799940245,4.456177896307883,-1653998.4841607541,5080121.246254612,3598494.7448836016,-150.65257395799415,-5261.092353517503,7364.627859034074,0.9951675512308009,-4.9303975744005314e-05,0.000476275017386615,0.09819020169302572
1.7650000000000001,1.03098756901684e-05,0.000503527663395888,-0.006769334166285056,-46.2226008629877,48.42529818757966,4.452770731220823,-1653999.2367031893,5080094.94079311,3598531.568453176,-150.36440010474334,-5261.092247227666,7364.799970842872,0.9951692139892521,-4.942785938058608e-05,0.0004775249558071179,0.09817334187455223
1.77,1.4559721968934436e-06,0.0005013794790694514,-0.006767542473527849,-46.20013849735694,48.37664175815759,4.4549773966703325,-1653999.9878051647,5080068.63533215,3598568.3928830326,-150.07639000118695,-5261.0921364955075,7364.971971731083,0.9951708746665051,-4.953387299486735e-05,0.00047877938771393987,0.0981565002034843
1.7750000000000001,8.932695628066651e-06,0.0004800111818070974,-0.006755541322318843,-46.18870127597579,48.35189068285099,4.447321407279858,-1654000.737467577,5080042.329871916,3598605.21817248,-149.78857489258365,-5261.091957159469,7365.143807141614,0.9951725346190559,-4.9661385171869915e-05,0.00048002630250815735,0.09813966297262175
1.78,4.269090644744769e-06,0.00047276246191594364,-0.006744401241059286,-46.166812036950674,48.31639538165308,4.443595603566593,-1654001.4856911392,5080016.024412571,3598642.044320842,-149.5008500811507,-5261.091780734108,7365.31553775888,0.9951741913678462,-4.9765038664191615e-05,0.0004812218902059031,0.09812285556528952
1.7850000000000001,-2.0196678696137588e-05,0.0004932713254804431,-0.006753156496806234,-46.13525936699158,48.26791179454934,4.437443494027989,-1654002.2324764812,5079989.71895415,3598678.871327535,-149.21328664930482,-5261.091588254811,7365.48713930046,0.9951758451072344,-4.987850332570195e-05,0.00048239830078891313,0.09810607585219205
1.79,9.551401888421851e-06,0.0004992934784079468,-0.006744519080249765,-46.12462958244665,48.24270943349215,4.435279534844758,-1654002.9778245676,5079963.413496731,3598715.6991917826,-148.92594795006255,-5261.091379017329,7365.658559945083,0.9951775006814552,-5.005787799875086e-05,0.000483619734354666,0.09808927435542482
1.795,-1.0667375860848277e-06,0.0004837019168801077,-0.006739751362824032,-46.10802950623957,48.2054292350781,4.434021070079236,-1654003.721736197,5079937.108040413,3598752.527912904,-148.6387037376554,-5261.091148357934,7365.8298886161765,0.9951791538491943,-5.016470743472513e-05,0.00048486344655977173,0.09807249428326964
1.8,-9.902439136544867e-06,0.0004905058821248071,-0.0067390525525064205,-46.079964149446106,48.15799676756667,4.431727541917244,-1654004.4642119647,5079910.802585349,3598789.3574903347,-148.35160345223105,-5261.090876972773,7366.001083566006,0.9951808055813105,-5.029412569646345e-05,0.00048606576486324564,0.09805572605976239
1.805,1.1133741403687363e-05,0.0004731332987375276,-0.006732779752622618,-46.05974641418415,48.12990593887989,4.421036746731161,-1654005.2052527617,5079884.497131735,3598826.1879233182,-148.0647152907069,-5261.090568904858,7366.172109841221,0.9951824568487616,-5.044719381552855e-05,0.00048728284507708867,0.09803895955676226
1.81,-1.7033424031895512e-07,0.0004954826222107612,-0.00670769086437864,-46.038820435268065,48.093065896660455,4.430445322997725,-1654005.944859447,5079858.191679598,3598863.0192111335,-147.7779588432782,-5261.090285851342,7366.343016251347,0.9951841063189246,-5.054365920906449e-05,0.0004884618596307462,0.09802220860883361
1.815,-1.1397329765460748e-05,0.0004751113637165286,-0.00673555619170169,-46.009157656174835,48.046151478438034,4.425484756121128,-1654006.6830327907,5079831.886229059,3598899.851353234,-147.49137864874677,-5261.08992985813,7366.513823996708,0.9951857493298352,-5.067369486701076e-05,0.0004896937113186381,0.0980055200642303
1.82,-1.417558240768994e-05,0.00048612603669650936,-0.006725018760405169,-45.9906331966784,48.01466164184515,4.42021985854492,-1654007.4197737707,5079805.580780353,3598936.6843489413,-147.20501336398004,-5261.089552069807,7366.68445894431,0.9951873989091684,-5.082670574968957e-05,0.0004908721256032233,0.09798876218019166
