t_s,gyro_x_radps,gyro_y_radps,gyro_z_radps,accel_x_mps2,accel_y_mps2,accel_z_mps2,ins_pos_ecef_x_m,ins_pos_ecef_y_m,ins_pos_ecef_z_m,ins_vel_ecef_x_mps,ins_vel_ecef_y_mps,ins_vel_ecef_z_mps,ins_quat_w,ins_quat_x,ins_quat_y,ins_quat_z
0.0,-1.4584560223840511e-05,0.0006622831547497247,-0.007307528260799988,-41.746276792860236,48.23664756868772,5.143436948047022,-1653639.850072476,5089380.142985015,3585590.067023642,-226.82286500164605,-4617.160284474699,6406.276788851849,0.9945218953682734,0.0,0.0,0.10452846326765354
0.005,1.3010341185391904e-05,0.0006599218050804828,-0.007332413691869148,-41.7569910732111,48.236123850179574,5.145928898834718,-1653640.9835154358,5089357.057174794,3585622.098842544,-226.5543189107915,-4617.163803997744,6406.450771978914,0.9945238048126972,-2.0933026221556137e-07,1.6428264915694004e-06,0.10451029450792709
0.01,-6.726129438378787e-06,0.0006577842834228984,-0.007328669749730469,-41.77581910831201,48.220404460811345,5.135785255853843,-1653642.115615569,5089333.971347041,3585654.131531371,-226.28573439257136,-4617.167297007565,6406.624758813905,0.9945257204233321,-3.4943419737314904e-07,3.286991801594342e-06,0.10449206383991966
0.015,4.933944703087435e-06,0.0006666413704765441,-0.007289195199501601,-41.77581751060295,48.21887886802631,5.144519977805188,-1653643.2463726222,5089310.885501894,3585686.1650898815,-226.01708686368207,-4617.17076192496,6406.798645468188,0.9945276347192212,-5.380507856316505e-07,4.920686801746934e-06,0.10447384244531538
0.02,1.2419618835323394e-05,0.0006502903474284201,-0.007313720358373124,-41.78134246589149,48.22109248047373,5.142541626471266,-1653644.375786486,5089287.799639501,3585718.1995178917,-225.7484586720197,-4617.174195569699,6406.972558484009,0.9945295383700927,-6.999895580077754e-07,6.579448829810584e-06,0.10445571916171525
0.025,3.0926754057437525e-05,0.0006311949936690087,-0.007319897693737066,-41.7799166123125,48.21576228225916,5.147545433549926,-1653645.5038571442,5089264.713759919,3585750.2348154834,-225.47980450527646,-4617.177637237968,6407.14647827997,0.9945314480916594,-8.390470288012944e-07,8.199511677920014e-06,0.10443753486544588
0.03,7.5943385410284495e-06,0.0006268545839145335,-0.007313434320561771,-41.776959077707474,48.21951956773405,5.140206302116158,-1653646.6305846008,5089241.627863184,3585782.2709826785,-225.2111782334463,-4617.181056578479,6407.320399796487,0.994533359091196,-9.271041267781636e-07,9.776929284694135e-06,0.10441933517473843
0.035,2.774654336549215e-06,0.0006630448049123101,-0.0072871788288329156,-41.78049107487841,48.20809727545154,5.140571845488091,-1653647.755968932,5089218.541949227,3585814.3080194946,-224.94255424162466,-4617.184526134019,6407.494326693921,0.9945352680683133,-1.0720401736480541e-06,1.1337464309132297e-05,0.10440115151951626
0.04,1.0452777667875697e-05,0.0006655331110165761,-0.0073165429675832745,-41.79079416739378,48.20848446522097,5.144292102449752,-1653648.8800101706,5089195.456017992,3585846.345925845,-224.67394118367656,-4617.187967545036,6407.668213354412,0.9945371698577737,-1.238404592652115e-06,1.2986722576528689e-05,0.10438303310931812
0.045,-1.8255681019137402e-05,0.0006532826666446025,-0.007305324791887691,-41.79976998555017,48.20154074059984,5.14084684027189,-1653650.002708252,5089172.370069623,3585878.384701656,-224.40529142454173,-4617.191380493648,6407.842111208105,0.9945390789758155,-1.3863288593288812e-06,1.4644171195429891e-05,0.10436484165447257
0.05,-5.014212208246593e-06,0.0006802740585024487,-0.0073274951888101765,-41.79439280874257,48.20492780959952,5.12965326679096,-1653651.1240630187,5089149.284104223,3585910.4243468638,-224.13661517672375,-4617.194779269705,6408.015971676156,0.994540984832307,-1.6024356357657859e-06,1.6263670599763118e-05,0.1043466780578577
0.055,-2.968933548241355e-06,0.0006602735900274795,-0.007323535638886833,-41.7967893466757,48.19905657896709,5.140414637981432,-1653652.244074426,5089126.198121656,3585942.464861361,-223.86794775224587,-4617.1982476232815,6408.189827298724,0.9945428961357705,-1.792661509706984e-06,1.7953734281596666e-05,0.10432845930197476
0.06,-7.5722044433592e-06,0.0006707258076805814,-0.007303095215629202,-41.80067006538753,48.189669505218745,5.141382639265096,-1653653.3627425442,5089103.112121883,3585974.5062451675,-223.5992995036013,-4617.20166183504,6408.363695279084,0.9945448060710487,-1.97258536676216e-06,1.9594603117432165e-05,0.10431025035566101
0.065,-1.5338793444713659e-06,0.0006708745789782121,-0.007320315500736558,-41.81323513406288,48.18074105310979,5.141502866703503,-1653654.480067437,5089080.026105104,3586006.5484982375,-223.33065767566157,-4617.205049440892,6408.537532687075,0.9945467103402189,-2.1666793033460463e-06,2.1260259623561934e-05,0.10429209219665563
0.07,7.803654083848056e-06,0.000645822759303597,-0.00732949160654005,-41.81148070432356,48.18595523752076,5.137729614333125,-1653655.596049035,5089056.940071489,3586038.5916203978,-223.06198148609468,-4617.208396886621,6408.711331527924,0.9945486187641558,-2.3457994527389234e-06,2.292786030315681e-05,0.1042738911862431
0.075,1.0133859741659712e-05,0.0006654838229027865,-0.007303292010655986,-41.816032160433856,48.17384057247471,5.137118234139748,-1653656.710687249,5089033.854021043,3586070.635611603,-222.7933041000315,-4617.21178133299,6408.885150598805,0.9945505292454478,-2.49517292308015e-06,2.4535606941915205e-05,0.10425566732498422
0.08,-5.595099924706213e-06,0.0006429332326852615,-0.007289994113406261,-41.82464471845952,48.17302787963215,5.140060945439666,-1653657.8239820919,5089010.767953745,3586102.680471787,-222.52463310154062,-4617.215137799309,6409.05892305009,0.9945524325614965,-2.643875460609414e-06,2.619284588171322e-05,0.10423750857035446
0.085,-3.6343238955443475e-06,0.000669275576074712,-0.007294267799034052,-41.816502820392316,48.17937818222324,5.1285264547850495,-1653658.93593351,5088987.681869727,3586134.726200848,-222.25593416977523,-4617.2184696316735,6409.232701146085,0.9945543320799634,-2.825808770868723e-06,2.7789916670812517e-05,0.10421938284557924
0.09,-7.369199035147412e-06,0.0006392180784420852,-0.007331103546031203,-41.82417442575073,48.154275955352226,5.144142087868746,-1653660.046541472,5088964.59576884,3586166.7727988204,-221.9872505561709,-4617.221884826812,6409.406487815786,0.9945562323769039,-3.0097305882894428e-06,2.9452995526912356e-05,0.10420124645953298
0.095,1.3398134613036607e-05,0.0006567009832648318,-0.007297174228868422,-41.83656869481345,48.16724838157267,5.138108372153809,-1653661.1558061081,5088941.509651198,3586198.8202655846,-221.71860391570874,-4617.225171966216,6409.580217861282,0.9945581419367906,-3.1951114035707127e-06,3.1040366470316435e-05,0.10418301845082813
0.1,-1.6215350399479787e-05,0.0006436788520090644,-0.0073044480821125935,-41.83670679914645,48.153772233607064,5.138885785366136,-1653662.263727307,5088918.423517034,3586230.868601082,-221.44987568825877,-4617.228493569735,6409.753981114253,0.9945600423231926,-3.333407337408609e-06,3.267661609638017e-05,0.10416487476696096
0.105,-3.815621127734068e-06,0.0006462486237413667,-0.007292930535783057,-41.84295905750673,48.14629702439231,5.145509069099015,-1653663.370304941,5088895.337366331,3586262.9178052843,-221.18117783037508,-4617.231787668001,6409.92769987883,0.9945619442706577,-3.5419437149248633e-06,3.427277570993055e-05,0.10414671296493548
0.11,2.4813833208371145e-05,0.0006485485670791331,-0.007324935874820029,-41.83672680455816,48.15531142468944,5.12858120664765,-1653664.4755390843,5088872.251199282,3586294.967878058,-220.91247948470183,-4617.235032339168,6410.101409568334,0.9945638428855069,-3.7203174404748402e-06,3.5878553384506e-05,0.10412857976416216
0.115,2.2856065563555915e-06,0.0006392472054441079,-0.007307135007247335,-41.84880162245604,48.156379256547716,5.135887083166538,-1653665.5794297233,5088849.165015741,3586327.0188193866,-220.64377613622628,-4617.238383770607,6410.275121917515,0.9945657494974203,-3.828108209811416e-06,3.7497502211591565e-05,0.10411036694737769
0.12,1.6874057213366055e-05,0.0006505000995275769,-0.007287819641133051,-41.85125487226147,48.13798686926842,5.134636743276381,-1653666.6819767423,5088826.078815555,3586359.0706293336,-220.37503152358323,-4617.241690540377,6410.448856797032,0.9945676511415636,-3.989490895264441e-06,3.908746060227389e-05,0.10409219835802927
0.125,1.1192481422148197e-05,0.0006400318937219536,-0.007273608389986867,-41.85329986836463,48.14496717755349,5.1253847217804305,-1653667.7831801046,5088802.992598925,3586391.1233077743,-220.1063133086371,-4617.244961837197,6410.622519587492,0.9945695474246947,-4.1175270353593434e-06,4.070919494333143e-05,0.10407407775832286
0.13,2.3791718068175456e-06,0.0006494987141054683,-0.0073066565280356455,-41.850430015563354,48.13207834507823,5.139163077465546,-1653668.8830398044,5088779.9063658,3586423.1768545513,-219.83756663046213,-4617.248287893909,6410.796191156524,0.9945714396791797,-4.256964861253253e-06,4.2303422758407774e-05,0.1040559924597452
0.135,7.284279718452224e-06,0.0006454117579901083,-0.00731901914479544,-41.85956212914569,48.12417424464554,5.131199735094772,-1653669.9815559192,5088756.820116224,3586455.231269678,-219.5688793219104,-4617.251542722997,6410.969859512011,0.9945733401967658,-4.4207825443987275e-06,4.39188960863567e-05,0.10403782495532916
0.14,-1.3389342503849187e-05,0.0006212280135918511,-0.007291468739076941,-41.85544627388746,48.12228418280754,5.134975160348255,-1653671.0787285194,5088733.73385037,3586487.2865530113,-219.30016073613808,-4617.254798687336,6411.143473819699,0.9945752435952768,-4.5713423644750175e-06,4.5525483110788965e-05,0.10401962667655142
0.145,1.4575748738215881e-05,0.0006500427216517956,-0.007310503454517839,-41.86024375489379,48.11854997457797,5.136692470569223,-1653672.1745576067,5088710.647568247,3586519.3427044526,-219.03147418332725,-4617.258050564946,6411.317102666156,0.9945771394976188,-4.7670137693832415e-06,4.706656289492873e-05,0.1040014968678258
0.15,1.4655403985579685e-05,0.0006632779299522185,-0.0072846172221306205,-41.86604528601777,48.103347224270344,5.132397754846401,-1653673.2690432433,5088687.561269911,3586551.399724022,-218.76278048972932,-4617.261283892186,6411.490725119559,0.9945790400121404,-4.900645743233559e-06,4.86865595895846e-05,0.10398331969182284
0.155,-8.530858873861864e-06,0.0006516544492038501,-0.0072884641928296105,-41.874091677839516,48.098170969192225,5.135010382609701,-1653674.3621854158,5088664.474955466,3586583.4576115273,-218.49408846749398,-4617.2644940953705,6411.664277052716,0.9945809334619925,-5.0375171083054e-06,5.0339485944008015e-05,0.10396520684551816
0.16,-3.198009671785842e-05,0.0006448736119137532,-0.007314149053723675,-41.87429013083785,48.10189163703325,5.133895710495443,-1653675.4539840834,5088641.38862505,3586615.516366761,-218.22537857074457,-4617.267672160648,6411.837816499792,0.9945828275801677,-5.2290193992688745e-06,5.195748459077711e-05,0.10394708440218815
0.165,-7.17581988107067e-06,0.0006234163305867185,-0.00731697393928658,-41.86987709459446,48.092426917849394,5.13054659744065,-1653676.544439192,5088618.302278697,3586647.5759897423,-217.95666485203358,-4617.2708693040995,6412.011375831448,0.9945847280395895,-5.477068427301771e-06,5.3552528923756916e-05,0.10392889806278204
0.17,8.393611551334683e-06,0.000646591544654802,-0.007292936046166178,-41.87333643434413,48.09395384479465,5.130939936470971,-1653677.633550827,5088595.215916338,3586679.63648043,-217.68798919563918,-4617.274073804299,6412.184899284959,0.9945866289010153,-5.65786786535938e-06,5.510066519212549e-05,0.10391070466135462
0.17500000000000002,-5.397067547907066e-06,0.0006693209093772086,-0.007322161408560363,-41.87531710755888,48.08487166999206,5.131392630069007,-1653678.7213190526,5088572.129537955,3586711.697838766,-217.41930108218534,-4617.27727975588,6412.358435162209,0.9945885231807648,-5.805971501511945e-06,5.671047075354676e-05,0.10389257099195455
0.18,-1.3189686490922031e-05,0.0006418714833125494,-0.007281575417228458,-41.88302383323193,48.08020947734552,5.122871856342257,-1653679.8077438718,5088549.043143591,3586743.7600647085,-217.1506265956394,-4617.2804657028955,6412.531941866513,0.9945904247131978,-5.994272937412682e-06,5.837320991214113e-05,0.10387436462119896
0.185,-1.8641368248425937e-05,0.0006519420329458551,-0.0073255744375060085,-41.883099838630635,48.06893859854991,5.131568340568298,-1653680.8928252398,5088525.956733264,3586775.8231580816,-216.88192056043644,-4617.283665326477,6412.705407367914,0.9945923153758032,-6.194816379693381e-06,5.9965673685167364e-05,0.10385625913319398
0.19,4.904542467881642e-06,0.0006427726787117767,-0.007321262437500709,-41.87611434925235,48.06362720900392,5.130308096607507,-1653681.9765631692,5088502.870307072,3586807.887118749,-216.61325121555126,-4617.2868113915465,6412.878859473655,0.9945942171265564,-6.411536641953654e-06,6.158176150663659e-05,0.1038380442082351
0.195,-3.8873755729267286e-07,0.0006322683608095506,-0.00729043752319675,-41.88169904009157,48.06356522594,5.128731725719075,-1653683.0589578636,5088479.783865115,3586839.9519466492,-216.344626533326,-4617.2899713476445,6413.0523006067315,0.9945961174237273,-6.567329352085369e-06,6.318116231297421e-05,0.10381983996644491
0.2,-4.9196110209410985e-06,0.0006633258949356725,-0.007293984750491633,-41.88295690487715,48.04093665447891,5.135913503084182,-1653684.1400093806,5088456.6974073555,3586872.0176417516,-216.0759802758426,-4617.293132488622,6413.225740418117,0.9945980093875544,-6.7335524890175625e-06,6.475307085095292e-05,0.10380171233661561
0.20500000000000002,1.1564783762098246e-05,0.000654688636799678,-0.0073041191779705,-41.89093912743973,48.0563544303989,5.131147680526511,-1653685.219717792,5088433.61093398,3586904.0842038915,-215.80738423348086,-4617.296217678187,6413.399115530703,0.9945999019336311,-6.919101755304401e-06,6.640102793050905e-05,0.10378357585206283
0.21,2.9821800205768764e-07,0.0006604103274945205,-0.007307696219755862,-41.8919869497986,48.038630235054825,5.129663090976551,-1653686.2980830614,5088410.524445068,3586936.151633033,-215.53872349956163,-4617.29934698867,6413.572541116854,0.9946017967770164,-7.061423244192716e-06,6.803178529582564e-05,0.10376541413083235
0.215,1.3864678566426543e-06,0.000631752556000221,-0.0072865443366345005,-41.889479166229904,48.0311238863577,5.118973097341482,-1653687.3751051046,5088387.437940585,3586968.2199291307,-215.27009386822277,-4617.3024461210525,6413.745897878382,0.9946036922126735,-7.233243989470075e-06,6.967384688507374e-05,0.10374724348218982
0.22,5.5859778764208e-06,0.0006390141660098083,-0.007291457440089008,-41.89148276809753,48.028619654686274,5.126804127118283,-1653688.4507840413,5088364.351420515,3587000.2890918865,-215.00148078087906,-4617.305582027156,6413.919204559456,0.9946055818336175,-7.394922192684365e-06,7.124493327740907e-05,0.10372912539343064
0.225,9.82905770643447e-06,0.0006645203763032055,-0.007295942679213071,-41.894790470442146,48.0216852545819,5.121495932894729,-1653689.5251199398,5088341.264884851,3587032.3591212216,-214.73287862323326,-4617.308683817633,6414.092529337486,0.9946074723946473,-7.548042229385224e-06,7.283516467845009e-05,0.1037109950525829
0.23,-4.6032297031236776e-07,0.0006620316649352324,-0.007286157527780048,-41.90431935100818,48.0125607906344,5.130414139812744,-1653690.5981128183,5088318.178333665,3587064.4300170857,-214.46427281958168,-4617.311790479788,6414.26581640276,0.9946093637806973,-7.697225769121378e-06,7.448991777389468e-05,0.10369285352309225
0.23500000000000001,2.214173102974221e-05,0.000632428596244424,-0.007303313976958541,-41.89635300193834,48.00940567145772,5.114822258325987,-1653691.669762645,5088295.091767118,3587096.501779355,-214.19565777673577,-4617.314828090975,6414.439091356965,0.9946112522971966,-7.87134711599931e-06,7.61358154554986e-05,0.10367473629183699
0.24,1.5017720934733617e-05,0.000645473153937852,-0.007305225870886863,-41.89744831844322,48.0086515718599,5.120558490508296,-1653692.740069463,5088272.005185191,3587128.5744078956,-213.92706945198321,-4617.317942957869,6414.612324812954,0.9946131449331036,-7.981598356864225e-06,7.771396206588776e-05,0.1036565763621165
0.245,-1.055371488748339e-05,0.0006585657163974666,-0.007281658857064436,-41.90425784591645,47.989336356700626,5.126123087854694,-1653693.8090333622,5088248.918587739,3587160.6479026536,-213.6584902557944,-4617.321037828577,6414.785578413682,0.9946150377275887,-8.112944437184994e-06,7.932269820715135e-05,0.10363841164470355
0.25,-1.7503108979710362e-05,0.0006465728566332075,-0.007298625733547902,-41.90605810601056,47.98514916087431,5.121499217282237,-1653694.8766544086,5088225.831974996,3587192.7222635285,-213.38992829090006,-4617.324059219707,6414.958771518032,0.9946169240795202,-8.311262408744626e-06,8.095736449110714e-05,0.10362030549763014
0.255,9.250460098635211e-06,0.0006659359443132456,-0.007309810532466495,-41.90459221024041,47.98346831846871,5.11923684086044,-1653695.9429326425,5088202.745347118,3587224.7974903104,-213.12136526980717,-4617.327092152446,6415.131941246985,0.994618814495992,-8.523757014458099e-06,8.256040939634663e-05,0.10360215712866132
0.26,-1.785865200543075e-05,0.0006595908245283658,-0.007290096835897842,-41.906449427744235,47.96603648429581,5.122326540092476,-1653697.0078680913,5088179.658704038,3587256.8735829312,-212.852814263043,-4617.33013980391,6415.305107165215,0.9946207074716283,-8.674745062100258e-06,8.421853058244065e-05,0.10358398090740435
0.265,-7.69791258181543e-07,0.0006503663012057921,-0.007306257281986872,-41.90086578185021,47.96212364950695,5.120784449332947,-1653698.071460867,5088156.572045843,3587288.9505412434,-212.5842960342951,-4617.333138227317,6415.478217549099,0.9946225950089556,-8.891494034911601e-06,8.585385452458322e-05,0.1035658536763357
0.27,-2.3062763916994475e-06,0.0006289762342637403,-0.007313324558131113,-41.912589953484314,47.955563418388316,5.1074133409033555,-1653699.1337111404,5088133.485372618,3587321.0283650886,-212.31581324004637,-4617.336151897261,6415.651320594354,0.9946244863990442,-9.063365691694485e-06,8.747066533650703e-05,0.10354768622318765
0.275,9.3187318146796e-06,0.0006692734968254717,-0.007296326381606109,-41.9076477581776,47.94839795048639,5.1096958138942545,-1653700.1946188686,5088110.3986842735,3587353.1070542843,-212.04727810917544,-4617.339185740538,6415.824357736445,0.9946263792885699,-9.23352222536789e-06,8.903389049929824e-05,0.10352950116280019
0.28,-9.858300318577374e-06,0.0006501871057404229,-0.0073071216005444325,-41.90713488764241,47.939073090788916,5.112174648974295,-1653701.2541840298,5088087.311980781,3587385.18660864,-211.7787863873345,-4617.342211032621,6415.997384505645,0.9946282674355292,-9.385198511577938e-06,9.070032665368293e-05,0.10351135833118152
0.28500000000000003,5.232175523259479e-06,0.0006258813686161945,-0.007297292643849816,-41.91494960129113,47.9405414806742,5.120809135754046,-1653702.312406802,5088064.225262222,3587417.267028074,-211.51032245056146,-4617.3452128808785,6416.1703889243245,0.9946301580457989,-9.579623142407514e-06,9.231434026245807e-05,0.10349318862651058
0.29,1.8134138390723356e-05,0.0006509030508566199,-0.0072931263064955915,-41.91283481223839,47.925872547746195,5.116772747880271,-1653703.3692872012,5088041.138528753,3587449.348312608,-211.2418372191755,-4617.348174559504,6416.343424871689,0.9946320457849579,-9.730233200115353e-06,9.3871820431395e-05,0.10347504332462693
0.295,5.229377004652612e-06,0.0006559796549297935,-0.007284005458063991,-41.918419477592046,47.913281174894905,5.109659198228606,-1653704.424825265,5088018.051780493,3587481.43046217,-210.9733883191005,-4617.351129607423,6416.516399911395,0.9946339321074031,-9.855233311638307e-06,9.549485666561955e-05,0.10345690834435615
0.3,3.699790489226769e-06,0.0006508352048418073,-0.007291430583499532,-41.907692997323224,47.90717586371324,5.111325338805896,-1653705.4790210696,5087994.965017471,3587513.513476438,-210.70493356489706,-4617.354079000173,6416.689307318891,0.9946358157363876,-1.0013633050680579e-05,9.712717878249111e-05,0.10343879601217851
0.305,9.305189654678142e-07,0.0006505314408671394,-0.007280446048252585,-41.91527603468421,47.90068345680364,5.11001774341859,-1653706.531874767,5087971.878239682,3587545.597355236,-210.436545366691,-4617.357036544206,6416.862211844438,0.9946377009538817,-1.0174507703848163e-05,9.874631299873849e-05,0.10342066518265
0.31,2.3396553205035496e-05,0.0006624058254207647,-0.007264921697953457,-41.92225590083003,47.89237341677138,5.108477991144667,-1653707.583386477,5087948.791447152,3587577.6820984855,-210.16813867584509,-4617.359975372285,6417.035087998518,0.9946395829986766,-1.034218715788196e-05,0.00010036397612385708,0.10340256163330847
0.315,-3.376791597693186e-05,0.0006574190542009629,-0.00729869970196184,-41.90180537864857,47.88532585020946,5.112682258485284,-1653708.6335561217,5087925.704639981,3587609.7677060263,-209.89971919768539,-4617.362893482103,6417.207928261035,0.9946414606964453,-1.0457068300389895e-05,0.00010201697406289245,0.10338449664639517
0.32,-2.5246121557866794e-06,0.0006485976675230886,-0.0072774617544943375,-41.91130884838312,47.883839075483884,5.110274566488463,-1653709.6823839566,5087902.617818178,3587641.8541777898,-209.63141476113103,-4617.36582756796,6417.380777188156,0.994643346791953,-1.0712814544955723e-05,0.00010364279616158747,0.10336634764713931
0.325,-5.516414939206323e-06,0.0006581993284830223,-0.0072763499681840205,-41.917729351577215,47.86975089985617,5.1035467801735965,-1653710.7298701752,5087879.530981721,3587673.941513766,-209.3630726869633,-4617.368754792223,6417.553613329032,0.9946452270695078,-1.0888585836041934e-05,0.00010525475722598505,0.10334825141589109
0.33,-1.769029846379999e-05,0.0006334522737292536,-0.007305555687710104,-41.91765558581282,47.86592788644928,5.096837822587228,-1653711.7760146675,5087856.444130661,3587706.0297137396,-209.09472420236017,-4617.371669699824,6417.726376102794,0.994647106725361,-1.1074277074019426e-05,0.00010688982090717844,0.10333015791527132
0.335,6.997690680475473e-06,0.0006497201336530518,-0.00729026057917509,-41.905124414739,47.85335334229207,5.101056255078438,-1653712.8208174272,5087833.357264964,3587738.118777462,-208.8263796819681,-4617.374609038076,6417.899112737928,0.994648993599014,-1.1283855115146005e-05,0.00010846020245470795,0.103311991760529
0.34,-2.0277778445141913e-06,0.0006536801586067115,-0.007271671264241415,-41.919136335384096,47.83922700923883,5.108445887037257,-1653713.8642786886,5087810.270384602,3587770.2087048157,-208.55812485018532,-4617.377535451699,6418.071828900052,0.9946508761848809,-1.1436240958847173e-05,0.00011007741283690295,0.10329386359713873
0.34500000000000003,-6.0213489566764324e-06,0.0006292333410882054,-0.007278301331497006,-41.91517738244786,47.83890864689506,5.108465329382398,-1653714.9063986202,5087787.183489818,3587802.2994956495,-208.28984779647837,-4617.380378176281,6418.24450457192,0.994652753636798,-1.1612087274206003e-05,0.00011170214013075132,0.10327578162631655
0.35000000000000003,-1.6282766234696844e-05,0.0006535389198176698,-0.0072971953552189205,-41.91592257626985,47.833172656899166,5.099617815324659,-1653715.9471772255,5087764.096580786,3587834.3911498873,-208.02159432557133,-4617.383234810304,6418.417190435057,0.9946546324756653,-1.1791554067963591e-05,0.00011326504586104393,0.10325768313635499
0.355,1.4197311223037087e-06,0.0006625742027137815,-0.007284834999481238,-41.91472985322246,47.81677112138548,5.099471713391369,-1653716.986614566,5087741.009657403,3587866.4836674524,-207.7533418815984,-4617.38611826812,6418.5898357037895,0.9946565158519997,-1.2002816967795571e-05,0.00011488574121222683,0.10323953763147038
0.36,1.3064590122133677e-05,0.0006361649204505069,-0.007291729135547735,-41.91816348670623,47.806206381717494,5.100948874968149,-1653718.024710745,5087717.922719673,3587898.5770480996,-207.48512974556306,-4617.388973877694,6418.762423117439,0.9946583957029155,-1.2172388548758617e-05,0.00011653347339744732,0.10322142282242099
0.365,-2.417225274455598e-05,0.0006487208643001429,-0.007276068828992637,-41.91701208573969,47.797921350439246,5.107529728339244,-1653719.061465891,5087694.83576774,3587930.6712915995,-207.2169286512732,-4617.391799013063,6418.934976960008,0.9946602770080921,-1.2306190482990562e-05,0.00011811853979534457,0.10320329083296581
0.37,1.818173932255756e-06,0.0006462179452676132,-0.0072800722549198685,-41.91459658722066,47.789961150399016,5.10467815889606,-1653720.0968801165,5087671.7488017725,3587962.766397854,-206.94876150755277,-4617.394588221277,6419.107524647719,0.9946621539355345,-1.25358223465877e-05,0.00011972522147022451,0.10318519776134417
0.375,7.827797647738992e-06,0.0006355985913910282,-0.0072669463293863,-41.91919777837205,47.78182850770444,5.097048885105296,-1653721.1309535734,5087648.661821847,3587994.862366771,-206.68062126762578,-4617.397382039264,6419.280042167516,0.994664031565371,-1.2700180509340587e-05,0.00012133238365088971,0.10316709469244954
0.38,2.5737756723937436e-05,0.000631927239040529,-0.007294322146897942,-41.90565349153105,47.77507835153874,5.100560990358624,-1653722.1636863034,5087625.574827931,3588026.95919815,-206.41247071974658,-4617.400184437305,6419.45250951187,0.994665905481771,-1.2846851875264608e-05,0.00012291468947307906,0.10314902422740715
0.385,6.917989228594719e-06,0.0006506059985288176,-0.007267503640194907,-41.91309165751914,47.771030849803566,5.107577705019543,-1653723.1950784873,5087602.487819989,3588059.0568918707,-206.14440284347185,-4617.4029920051535,6419.624978848228,0.9946677861273155,-1.2948048843941468e-05,0.00012449248343948647,0.10313088564806608
0.39,-1.3425133971097722e-05,0.0006583194612753236,-0.0072664386764660005,-41.91881955984611,47.75482563779046,5.095848036687826,-1653724.2251303026,5087579.400798125,3588091.155447951,-205.87632330449318,-4617.405753916337,6419.797453143115,0.99466965951978,-1.3100851895233963e-05,0.0001261118738850888,0.10311281372830425
0.395,-1.5005232583522742e-06,0.0006273336546262697,-0.007280755721024898,-41.92184523697429,47.74246494876342,5.0943480909175385,-1653725.2538417056,5087556.31376244,3588123.2548661637,-205.60823784518155,-4617.408519776719,6419.969832081292,0.994671532303658,-1.330622971708924e-05,0.00012774520110033492,0.10309474442861226
0.4,-1.2536013317750821e-05,0.0006244381831074171,-0.007269955678779994,-41.90726710862033,47.732870494423246,5.092538289311498,-1653726.281212712,5087533.226712982,3588155.3551461496,-205.3401646664611,-4617.411263624851,6420.142162152366,0.9946734084563915,-1.3473973245277925e-05,0.0001293045494590365,0.10307663948989558
0.405,-1.5332020101493646e-05,0.0006429456202478743,-0.007257356180712827,-41.91533444397971,47.74212119041816,5.09035546127716,-1653727.3072435663,5087510.13964975,3588187.4562877268,-205.0721771401273,-4617.414029267848,6420.31446866605,0.994675281495118,-1.3668408910331756e-05,0.00013085385426405688,0.10305856137677889
0.41000000000000003,-7.157899649829189e-06,0.0006495192488586995,-0.007267939476732251,-41.90780090465425,47.71313559449246,5.09844036241518,-1653728.3319343568,5087487.05257264,3588219.558290918,-204.80413908639446,-4617.416814637692,6420.4868077833935,0.9946771509509821,-1.3874561620816311e-05,0.00013244846130066088,0.10304051456072479
0.41500000000000004,4.995778327582223e-06,0.0006489453799984605,-0.007266152191051556,-41.91780574443648,47.70741627976487,5.095191972023753,-1653729.3552852124,5087463.9654817935,3588251.661155603,-204.53620311820248,-4617.419523947298,6420.659066327642,0.9946790228007183,-1.4062084679121564e-05,0.00013406152018554697,0.10302244139009148
0.42,-1.583045845906258e-07,0.0006666017002868659,-0.0072791844331320365,-41.903810996909876,47.70478459230932,5.096857074258089,-1653730.3772963048,5087440.878377437,3588283.764881499,-204.2682338411135,-4617.422218948613,6420.831292133484,0.9946808938598212,-1.4219236808973598e-05,0.0001356762823043133,0.10300437262556869
0.425,-3.210229745892372e-06,0.0006629283528101176,-0.007270119274150962,-41.9102197940624,47.69475140025848,5.0870460930630665,-1653731.3979677379,5087417.791259548,3588315.869468559,-204.00033938095012,-4617.424936717004,6421.003531841381,0.9946827679371913,-1.4393756719483952e-05,0.0001373336226930122,0.10298627142053188
0.43,-4.974857967459106e-06,0.0006356533998337821,-0.007253902905752284,-41.911083166940664,47.682288232236054,5.092142273957807,-1653732.4172996543,5087394.7041280465,3588347.9749166537,-203.73242716121047,-4617.427663574523,6421.175706036802,0.9946846393500034,-1.4574916995328945e-05,0.00013898104305754163,0.10296819272472114
0.435,-1.7895386890781697e-05,0.0006420411830606645,-0.0072660789878888415,-41.89722299603362,47.669418642536314,5.0937746843345835,-1653733.4352920859,5087371.616983021,3588380.081225547,-203.46454553235145,-4617.43034661514,6421.347851236034,0.9946865062673268,-1.4753438621842124e-05,0.00014056018477342204,0.10295015432173836
0.44,3.7906687750985352e-06,0.0006461002018454524,-0.007280056462219129,-41.90594938002685,47.652548008921585,5.0868048761913,-1653734.4519453414,5087348.529824582,3588412.1883950965,-203.1967566865931,-4617.433028870148,6421.519968557422,0.994688375985543,-1.4965738269743892e-05,0.00014215188517187688,0.10293208561042204
0.445,-4.161607316356468e-06,0.0006403977216996384,-0.0072650031565567735,-41.90890418132857,47.63986682407698,5.0853715781779965,-1653735.4672596226,5087325.442652789,3588444.2964250143,-202.92895575270026,-4617.435688632313,6421.691998564098,0.9946902489685209,-1.5125160219422087e-05,0.00014375925912435997,0.10291398209887158
0.45,5.877950810505018e-06,0.0006281173754766358,-0.007257558313698603,-41.904467995734265,47.64094471866829,5.087454254832239,-1653736.481234932,5087302.3554677535,3588476.4053149573,-202.6611680613931,-4617.438325522109,6421.863978659795,0.9946921177488803,-1.530288472028491e-05,0.00014535040709367326,0.10289591598955021
0.455,-1.6155351666465896e-05,0.0006262576450580988,-0.0072584108023297554,-41.901516848463686,47.63156215284762,5.091921010648377,-1653737.4938713678,5087279.268269508,3588508.5150648556,-202.39340616431141,-4617.440972346956,6422.035980743653,0.9946939842886854,-1.5452481843773205e-05,0.00014691359996438862,0.10287786835619986
0.46,1.3333516987466537e-05,0.0006428688903001697,-0.007279134085438139,-41.90309030178809,47.61317032500195,5.084909041264961,-1653738.5051690969,5087256.181058096,3588540.625674727,-202.1256854913956,-4617.4435927264785,6422.207967769551,0.9946958507176388,-1.565639194605482e-05,0.00014846650124881262,0.102859818576976
0.465,4.927901964184923e-06,0.0006579482207661955,-0.007242076032001221,-41.8951340531234,47.612402700226596,5.085381478911108,-1653739.515128279,5087233.093833609,3588572.7371443147,-201.857987440864,-4617.446202017119,6422.379867237189,0.9946977221395903,-1.5791250170868974e-05,0.00015006829256369566,0.10284171721852206
0.47000000000000003,-1.5978068090238212e-05,0.0006545032972546708,-0.007257467811981913,-41.90274348266574,47.596673195559525,5.079416926800629,-1653740.5237490784,5087210.006596027,3588604.849473432,-201.59033225259756,-4617.448830603839,6422.551779706343,0.9946995836974046,-1.595087406323345e-05,0.00015170542261117555,0.1028237079823734
0.47500000000000003,8.776028542557034e-06,0.0006396155921248485,-0.007265348466529281,-41.90102017640926,47.5774271967211,5.075512141263667,-1653741.531031582,5087186.9193453565,3588636.9626619145,-201.32266916166267,-4617.4514375761055,6422.723613246786,0.9947014488828593,-1.61616061376005e-05,0.0001533286112612746,0.10280566044474425
0.48,-2.0936508004118898e-05,0.0006131549964506886,-0.007252647847639936,-41.89209748887971,47.57993872832963,5.085425198317548,-1653742.5369758774,5087163.832081698,3588669.0767093655,-201.05504898821692,-4617.454026012115,6422.895367257259,0.994703315770052,-1.6306957537063833e-05,0.00015492113964051053,0.10278759326683272
0.485,-1.5986724405696631e-06,0.000646639631523383,-0.007247396106906648,-41.900526267243094,47.55206595693755,5.0872344671654375,-1653743.541582205,5087140.744805118,3588701.1916157207,-200.78748213258353,-4617.4566060091565,6423.067174766272,0.9947051790725873,-1.6519392356320098e-05,0.00015644023218017993,0.1027695576507735
0.49,5.144243253504444e-06,0.0006589152187277475,-0.007278676198926432,-41.88958912023152,47.540789234951646,5.076554662618614,-1653744.5448507497,5087117.6575158425,3588733.3073808453,-200.5199357179045,-4617.459104357868,6423.238875086788,0.9947070406842795,-1.669233950607384e-05,0.0001580475615867757,0.1027515350515858
0.495,-1.0839648226744748e-05,0.0006424435971527906,-0.007267284750740699,-41.88730558985212,47.5336714223122,5.075387315322313,-1653745.5467817148,5087094.570213961,3588765.4240043256,-200.25245028429333,-4617.461648031118,6423.41051705618,0.9947089099959925,-1.6851684283851985e-05,0.00015968714828040856,0.10273343462875138
0.5,8.639603893165561e-06,0.0006604061018115604,-0.007242588909554373,-41.89109722352975,47.52085648530317,5.078111327516217,-1653746.5473753198,5087071.482899363,3588797.5414859606,-199.98499174686285,-4617.464191254893,6423.582136865322,0.9947107760564159,-1.7046542340898813e-05,0.00016128166902870019,0.10271536250669368
0.505,1.0681686362271292e-05,0.0006461413628555116,-0.00725867195517414,-41.88977819871801,47.508995400507416,5.081632394227014,-1653747.5466316699,5087048.395572152,3588829.6598255956,-199.71754822444763,-4617.466693178675,6423.753717105309,0.9947126354389578,-1.719756244278456e-05,0.00016292586156443315,0.10269735175500251
0.51,9.054220126880518e-06,0.0006571440307184391,-0.007262595773028111,-41.89119127902901,47.4890682160255,5.0807391143818075,-1653748.544550895,5087025.30823251,3588861.7790230587,-199.45014188406736,-4617.469163297015,6423.925268194995,0.994714498627123,-1.7339848499458325e-05,0.00016453510435567972,0.10267930097405355
0.515,1.2453408582273732e-06,0.0006436806423658681,-0.007268429628416121,-41.88420727870586,47.48747667920928,5.072796486963236,-1653749.5411331735,5087002.220880615,3588893.899078086,-199.18276949048288,-4617.471594961674,6424.096742757466,0.9947163624875499,-1.7489007690649642e-05,0.0001661712904375591,0.10266124040149739
0.52,7.640035784502655e-06,0.0006584583082451523,-0.0072499659854913506,-41.87545459716817,47.4781928613891,5.070100830592524,-1653750.536378663,5086979.133516439,3588926.0199904493,-198.9154262910309,-4617.4740751677255,6424.268202593602,0.9947182275196952,-1.7654132929153894e-05,0.00016777199140430516,0.10264316529105363
0.525,-2.2868050766129678e-05,0.0006377525685183338,-0.0072647087280574615,-41.88052617726762,47.465948379682814,5.074360055586879,-1653751.530287581,5086956.046139829,3588958.1417600373,-198.6481409073691,-4617.476569297319,6424.439632647667,0.994720087477761,-1.780714018459207e-05,0.00016941108309359422,0.10262513605850333
0.53,4.053607948006855e-06,0.0006496026211127997,-0.007254036666139047,-41.88118244896693,47.44807143439858,5.073162678034833,-1653752.5228600975,5086932.958750868,3588990.2643866907,-198.38086572208496,-4617.479014692227,6424.611028656476,0.9947219508956209,-1.803070887099117e-05,0.00017099085579094526,0.10260707014348847
0.535,-2.933809327431824e-05,0.0006304166508558465,-0.0072490847439739,-41.88268112459746,47.442465135188264,5.065652309213784,-1653753.514096321,5086909.8713497585,3589022.387870153,-198.11362372925817,-4617.481429115165,6424.782356224238,0.9947238112418512,-1.819036382509553e-05,0.0001726070035624929,0.10258903072170555
0.54,4.980471040112773e-06,0.0006441111150707004,-0.007248575803498153,-41.87597775314076,47.42460158203948,5.063285273701717,-1653754.5039963324,5086886.783936527,3589054.5122101605,-197.84638077329677,-4617.483863740884,6424.953646789731,0.9947256699953368,-1.842813476185856e-05,0.00017416687559276855,0.10257100359571185
0.545,-1.635155347208551e-07,0.0006388812095673391,-0.007229289065826892,-41.86882006656769,47.41702203791294,5.065272541278649,-1653755.4925602903,5086863.696511149,3589086.637406457,-197.57920242029942,-4617.486287163939,6425.124871889685,0.9947275282847292,-1.8584073216071427e-05,0.00017576960340053553,0.10255297768583878
0.55,-8.719483059020441e-06,0.0006439215188419825,-0.007266734492912276,-41.869839827068745,47.4022825886566,5.062062034385398,-1653756.4797884906,5086840.609073665,3589118.7634588517,-197.31207762561388,-4617.488706636364,6425.29608583971,0.994729381303054,-1.8751454495764595e-05,0.0001773580073910628,0.10253499970723999
0.555,-9.267182147220818e-07,0.0006306843746113165,-0.007241868116459844,-41.86019124071637,47.39678625258055,5.058499918669724,-1653757.4656811247,5086817.521624125,3589150.8903671615,-197.0449760827908,-4617.491109435493,6425.467238114667,0.9947312435882449,-1.8941421573345393e-05,0.00017895675071150576,0.10251692857810255
0.56,-7.746042419936643e-06,0.0006547861646727578,-0.007252037722461305,-41.85565164677766,47.38435659943447,5.0590752080451535,-1653758.450238386,5086794.434162501,3589183.0181311923,-196.77792835778297,-4617.493540073107,6425.638374285739,0.9947330991769665,-1.910860567454889e-05,0.00018052457387358496,0.10249891925053062
0.5650000000000001,2.4817727806060902e-06,0.000611079156508057,-0.007260183704480078,-41.85993126193759,47.374199733548394,5.058181785730254,-1653759.4334605304,5086771.346688761,3589215.1467508115,-196.51092944341534,-4617.495955847355,6425.80947343956,0.9947349570313387,-1.9298928896425728e-05,0.00018215058617752775,0.10248088460086681
0.5700000000000001,2.187369014969747e-05,0.0006231946900059563,-0.0072528073456725435,-41.85502748867939,47.360410340723355,5.057327877775776,-1653760.4153476886,5086748.259202997,3589247.2762258286,-196.24393384138565,-4617.498349609158,6425.980533267155,0.994736816663295,-1.945262307595307e-05,0.00018367052619470934,0.10246282965694123
0.5750000000000001,7.8602371018399e-06,0.0006488106366654742,-0.007247505256063062,-41.859900769111555,47.34836319345548,5.052771575078501,-1653761.3958999964,5086725.171705294,3589279.406556029,-195.9769893160192,-4617.50073180338,6426.151546876269,0.994738674071383,-1.9561192706221445e-05,0.00018522556330460345,0.10244479301339628
0.58,1.8646313393897453e-05,0.0006415885271183583,-0.007229640348852996,-41.849146225654465,47.33414706155799,5.054185823318594,-1653762.3751175802,5086702.084195713,3589311.537741153,-195.71004416876607,-4617.503100869219,6426.32250274232,0.994740529779676,-1.971116973495187e-05,0.0001868407145312565,0.10242676952665622
0.585,5.201750368485799e-06,0.0006430678765315922,-0.00722958223076882,-41.84879807047045,47.32306163470938,5.0516478951248045,-1653763.3530006406,5086678.9966743095,3589343.6697809645,-195.44317998738865,-4617.50546042866,6426.493421945401,0.9947423805889138,-1.9832465700957275e-05,0.00018844066822126712,0.10240879042879261
0.59,-8.561648454296273e-07,0.0006460358758376151,-0.007227672893315058,-41.84044880704444,47.30610524915615,5.051666072172413,-1653764.329549439,5086655.909141129,3589375.802675263,-195.17633939686877,-4617.50781180321,6426.664297340092,0.9947442310543895,-1.998757507058138e-05,0.00019004085867741513,0.10239081144800258
0.595,8.018648056579964e-06,0.000639896625401845,-0.007243904211122192,-41.837825408704944,47.289718256155396,5.049918049278375,-1653765.304764218,5086632.821596229,3589407.9364238037,-194.9095721591894,-4617.510147941134,6426.835118987926,0.9947460807019576,-2.0158508456677592e-05,0.00019164687947974417,0.10237283718449355
0.6,-1.5101101897471126e-05,0.0006448533829250918,-0.007209742445331507,-41.84003826076453,47.27122261971618,5.05046761586336,-1653766.2786452717,5086609.734039696,3589440.0710262996,-194.64284932244112,-4617.512465334027,6427.005879425518,0.9947479341789488,-2.0305807918225433e-05,0.00019323990326203838,0.10235482251817848
0.605,-1.0887934319474438e-05,0.0006403563961000085,-0.007230428137341644,-41.846156348621705,47.26363384270384,5.050223836309388,-1653767.2511927849,5086586.646471682,3589472.2064824295,-194.3761560037954,-4617.514740166471,6427.176572459197,0.9947497785835455,-2.0511855048519378e-05,0.00019483933948095093,0.102336892784971
0.61,3.879421461057711e-06,0.0006355951033906389,-0.007231785919469259,-41.82240891341246,47.267597971488016,5.0468206946076855,-1653768.2224068097,5086563.558892351,3589504.3427919527,-194.10945387189534,-4617.516992485396,6427.347236796562,0.9947516279561538,-2.0706284109993186e-05,0.00019642866903972345,0.10231891157361639
0.615,1.130774519267791e-05,0.0006300994324101778,-0.007224228585025792,-41.826947207833875,47.244854147163096,5.042374531234061,-1653769.1922875736,5086540.471301563,3589536.479954884,-193.84285170669304,-4617.5193225974135,6427.517935679682,0.9947534773515602,-2.0862771277700328e-05,0.00019800993515375093,0.10230092694491773
0.62,-2.198149201672408e-05,0.0006403043249466163,-0.007234541023590024,-41.82168473849557,47.231986092005194,5.045539283071063,-1653770.1608353776,5086517.383699218,3589568.617971058,-193.57626991778866,-4617.521615324808,6427.688533967045,0.9947553244899657,-2.0999375789725557e-05,0.00019957943431325926,0.10228296107338024
0.625,1.0892856785212373e-05,0.0006326528352854796,-0.007248824179697624,-41.81953719327598,47.219331482258085,5.042240015772716,-1653771.128050413,5086494.296085471,3589600.7568401457,-193.30974424704797,-4617.523883407446,6427.859101270235,0.9947571739310512,-2.12213815216842e-05,0.0002011657989892648,0.10226496953836481
0.63,-7.649157430114313e-06,0.0006356473397133537,-0.007227354633863811,-41.82721099481768,47.20727246003466,5.052552899951216,-1653772.0939329038,5086471.208460397,3589632.8965619435,-193.04325205858055,-4617.526146441693,6428.029617752397,0.9947590267008303,-2.135968324567596e-05,0.00020274153914117372,0.10224694243276458
0.635,-9.530314423799954e-06,0.0006124759300028119,-0.007216510546525917,-41.81682992049893,47.19047246236676,5.036571571146585,-1653773.0584829482,5086448.120824201,3589665.037136277,-192.77676575271428,-4617.528331938157,6428.20011565115,0.9947608736518905,-2.1544851618038485e-05,0.00020431998773776965,0.10222896869522731
0.64,-3.371559086979097e-06,0.0006360282400145801,-0.0072126456441439155,-41.819657868795645,47.17404635695945,5.0431806699522745,-1653774.0217007154,5086425.033176946,3589697.1785628595,-192.51034105104551,-4617.530569782801,6428.370517369502,0.9947627175165435,-2.1728770724306898e-05,0.0002058403310500863,0.10221102189451013
0.645,-1.012789093714279e-05,0.0006470288786754918,-0.007226409578238947,-41.80025096155861,47.161347178727546,5.035931187156936,-1653774.9835864357,5086401.94551866,3589729.320841344,-192.2439470608894,-4617.532744650797,6428.540876444951,0.9947645600557886,-2.1903389848267573e-05,0.00020742082063635408,0.1021930846674966
0.65,5.401057596022236e-06,0.0006204674081351727,-0.0072037135050828476,-41.803495364525006,47.14986648991681,5.043123436337844,-1653775.9441404503,5086378.857849386,3589761.463971505,-191.97765885854506,-4617.534965362501,6428.711187977177,0.9947664057787925,-2.209762897404742e-05,0.00020902694088853761,0.10217511318014627
0.655,1.3677280432019679e-05,0.0006268995593680606,-0.00720362538335475,-41.80414893652303,47.1313362739359,5.038035214426854,-1653776.9033630758,5086355.770169144,3589793.607953171,-191.71139129718372,-4617.537131244036,6428.881478245371,0.9947682453929462,-2.2246452238420838e-05,0.00021057097285974552,0.10215719809587602
0.66,1.63782004550657e-05,0.0006490740289220669,-0.007231219612347304,-41.796112277878585,47.126767864772795,5.037658372501689,-1653777.8612544364,5086332.682478116,3589825.752786082,-191.44515298301758,-4617.539279863755,6429.051686446276,0.9947700846566158,-2.2376335866330496e-05,0.00021213311470587637,0.10213928319266183
0.665,2.4019582401754317e-05,0.0006328773680517078,-0.007234661738737536,-41.79892952811263,47.1033815215681,5.035519482678707,-1653778.817814728,5086309.59477631,3589857.8984700227,-191.1789635882265,-4617.54144246149,6429.221889738229,0.9947719306284124,-2.2505179345980723e-05,0.0002137510908612319,0.10212129962847741
0.67,2.9558380316823817e-06,0.0006291149611219105,-0.007219444171368741,-41.77592366956203,47.09039286092629,5.030036903968062,-1653779.773044153,5086286.507063802,3589890.0450047418,-190.91280635533283,-4617.543560596194,6429.391997729831,0.9947737771602606,-2.261088601679119e-05,0.00021533073766311355,0.10210330746714076
0.675,-1.1245982857337153e-05,0.0006437324270496007,-0.007194576352848834,-41.78627760155576,47.07105099311466,5.030615345814843,-1653780.7269431034,5086263.41934059,3589922.1923898985,-190.6467738349178,-4617.545724320678,6429.562064983044,0.9947756194813228,-2.276800825403031e-05,0.00021689565170007264,0.10208535312886356
0.68,6.018272954483709e-06,0.0006354258799371842,-0.007202690117003618,-41.78037703406741,47.06190987351139,5.0323046558502735,-1653781.6795118775,5086240.331606713,3589954.340625197,-190.38073583702976,-4617.54782665799,6429.732054577024,0.994777455121595,-2.2964166635374545e-05,0.00021849329533360406,0.10206746060880534
0.685,-1.1958328810378855e-05,0.0006423809601088541,-0.007206575897934531,-41.7775439520429,47.043743621229105,5.020758248920989,-1653782.6307505872,5086217.243862347,3589986.489710395,-190.11474810652393,-4617.549919963082,6429.902024660271,0.9947792925130444,-2.3115274639655542e-05,0.00022007468581237947,0.10204954786800119
0.6900000000000001,-1.8548221424999558e-05,0.0006380295132312115,-0.007197267882044117,-41.77105176084405,47.036667844240746,5.017092484668868,-1653783.5806594482,5086194.156107473,3590018.6396452044,-189.8487962754177,-4617.552029428064,6430.071899022191,0.994781130565722,-2.331286605920758e-05,0.00022166878665877028,0.10203162543958263
0.6950000000000001,-1.4494737634173412e-05,0.0006434878582565753,-0.00719018029766697,-41.76590139369785,47.01478013183787,5.029030511397575,-1653784.529238656,5086171.068342007,3590050.7904293216,-189.58288675301617,-4617.554156921008,6430.24174778513,0.9947829659211158,-2.352573110196882e-05,0.00022325038518847712,0.10201372613032854
0.7000000000000001,5.160839994727207e-07,0.0006599928261197136,-0.00719703192856493,-41.768566773789864,47.00393869203189,5.009312898811377,-1653785.4764885237,5086147.980566104,3590082.9420625744,-189.3170603616204,-4617.556204261574,6430.411553316499,0.9947847991418218,-2.372990340501311e-05,0.0002248465925113517,0.10199584441175487
0.705,-6.977496240761214e-06,0.0006294136951310126,-0.007177487885626403,-41.75772672832817,46.988595596153885,5.014729010971688,-1653786.4224092283,5086124.89277983,3590115.094544621,-189.05122145857908,-4617.5583054404215,6430.581265362748,0.9947866337768551,-2.3900956804112402e-05,0.00022648767418585492,0.10197794561075961
0.71,-2.1137361167534722e-07,0.0006207918920245615,-0.007176450562152673,-41.75353456442449,46.973101015026955,5.016075783466925,-1653787.3670009593,5086101.8049831195,3590147.2478751526,-188.78547096459386,-4617.560378807198,6430.750947301132,0.994788463122344,-2.4082839420486853e-05,0.00022805079722770872,0.10196009538802701
0.715,1.7601060858360302e-05,0.0006180131436211068,-0.007210848798215589,-41.74725936536028,46.9620549498104,5.013442331503958,-1653788.310264072,5086078.717176106,3590179.4020539746,-188.51977411632603,-4617.562426406138,6430.9205815083415,0.9947902918860594,-2.4245696586144983e-05,0.00022959420276866244,0.10194224770867646
0.72,5.244375707607249e-06,0.0006635930267858408,-0.007202381167195182,-41.7423697726087,46.944601615381195,5.009391083449759,-1653789.252198825,5086055.629358844,3590211.55708087,-188.2541270805744,-4617.564478388909,6431.09017665451,0.9947921290949011,-2.4363566216137636e-05,0.00023113523506896282,0.10192431443847626
0.725,-5.0837943481635584e-06,0.000622156022954725,-0.0071913571047702565,-41.73730580767608,46.93239252489712,5.017152922223795,-1653790.1928054763,5086032.541531341,3590243.7129555657,-187.98853345508766,-4617.566522836365,6431.259701645847,0.9947939637935462,-2.4523776023919436e-05,0.00023278647546527852,0.1019064021981255
0.73,-1.5454239208794416e-05,0.0006555638188110028,-0.007193785665335879,-41.745333096437776,46.916729235778945,5.016400660216923,-1653791.1320843091,5086009.4536937205,3590275.8696778473,-187.7229996871119,-4617.5685255253775,6431.429210958252,0.994795795382511,-2.4699108671192052e-05,0.00023433203199166883,0.10188851734975023
0.735,-4.616969498583251e-06,0.0006472948233758474,-0.007171577808346686,-41.73786277975421,46.89373623285723,5.006951690080537,-1653792.0700354644,5085986.365846193,3590308.027247514,-187.45746241613463,-4617.5704852411845,6431.598655734103,0.9947976272456809,-2.49087435974662e-05,0.00023595803155573037,0.10187062643237889
0.74,1.4399962773246942e-05,0.0006305930695953106,-0.007193096830723186,-41.72567555828851,46.87687298513664,5.000025980927821,-1653793.0066591033,5085963.277988852,3590340.1856641406,-187.1919931973127,-4617.572451284809,6431.767994919893,0.9947994531351769,-2.5089307270492707e-05,0.00023756622748204767,0.10185279070682034
0.745,3.2945261307460167e-06,0.0006448071514270688,-0.007167292435259107,-41.71839814461067,46.87134591471541,5.007218874076129,-1653793.9419555997,5085940.19012163,3590372.344927289,-186.92660529038085,-4617.574437410907,6431.9372643831575,0.9948012841919406,-2.5218335830710173e-05,0.00023913772706166036,0.10183490142013706
0.75,-1.0360218450930482e-05,0.0006348049179631316,-0.00719110907927244,-41.7124636189503,46.85714778778815,4.999218515059519,-1653794.8759252985,5085917.102244527,3590404.5050368137,-186.66127430743964,-4617.576403871199,6432.106545521614,0.9948031083469608,-2.537858693636138e-05,0.00024074175135500387,0.10181707628173903
0.755,-3.874545847065083e-06,0.0006150170974539012,-0.007178937080258876,-41.71462629564406,46.833498479919974,5.001350002686737,-1653795.8085684604,5085894.014357547,3590436.665992576,-186.39599040970052,-4617.578387897302,6432.275759498235,0.9948049382464841,-2.5570265828386248e-05,0.0002423174227113224,0.10179919188695599
0.76,1.2110558976900976e-05,0.0006533117554370354,-0.0071638598420273696,-41.70431846214306,46.819191222679876,4.997442772843226,-1653796.739885305,5085870.9264608,3590468.827794199,-186.13074741623998,-4617.580311315998,6432.444889501777,0.9948067647372535,-2.5740771430204642e-05,0.00024384553280364595,0.10178133772832627
0.765,-4.060909314520118e-06,0.0006342055721705152,-0.007189042173240592,-41.697615168932856,46.80479704613794,4.997518724655221,-1653797.669876115,5085847.838554409,3590500.99044134,-185.8655765396529,-4617.582244933806,6432.6139669967815,0.9948085870469877,-2.58812568101462e-05,0.0002454729507126428,0.10176352102186213
0.77,-2.017341212663285e-05,0.0006200689682493133,-0.0071824425866351144,-41.69285536844579,46.78303781297864,4.996376784560557,-1653798.5985412234,5085824.750638383,3590533.153933757,-185.60046690222126,-4617.584165387827,6432.782999760661,0.9948104154512156,-2.6057115643127942e-05,0.00024704873526078827,0.10174564166454018
0.775,-2.3658101189098785e-06,0.0006434070309180048,-0.007194942456902608,-41.69333288432662,46.77769329021247,4.9921502555476325,-1653799.5258809447,5085801.662712828,3590565.3182711387,-185.33542155401048,-4617.586056663587,6432.951952864766,0.9948122418609366,-2.626944676113176e-05,0.00024858526361411936,0.10172777869834887
0.78,-1.2915151996038425e-05,0.000648108423251444,-0.007160028675543936,-41.68365532874328,46.76127872803613,5.005177889205999,-1653800.451895457,5085778.574777792,3590597.48345322,-185.0703833577829,-4617.587957793155,6433.1208799030555,0.9948140711124922,-2.6443432910794456e-05,0.00025018436236122526,0.10170988459888786
0.785,-5.581760131635869e-06,0.0006321346489386642,-0.007157343519308397,-41.68190610861458,46.73205007244457,4.99979049016073,-1653801.3765850153,5085755.486833407,3590629.649479902,-184.80544000406752,-4617.589796233166,6433.289792727758,0.9948158911598158,-2.6644829244216355e-05,0.00025179247343248086,0.10169207730450307
0.79,1.466425316239971e-05,0.0006354591143562418,-0.007169188144868291,-41.68158274672669,46.72811361885371,4.986618768910626,-1653802.299950004,5085732.398879919,3590661.816350837,-184.54055547476867,-4617.591598890132,6433.458581143268,0.9948177102138546,-2.6823924426153594e-05,0.0002533627215596181,0.10167427665182457
0.795,-1.268179851017953e-05,0.0006169329722652579,-0.007155783553361817,-41.660702208799,46.70461142404024,4.990188195419845,-1653803.2219905618,5085709.310917293,3590693.9840656016,-184.27566764557093,-4617.593451473885,6433.627324850147,0.9948195319563407,-2.695351940195593e-05,0.0002549463831501429,0.10165644649512849
0.8,-1.6631237112287453e-05,0.0006445872656397311,-0.007144998753919615,-41.671696585666304,46.69611175680773,4.985446637944575,-1653804.1427070447,5085686.222945451,3590726.152623935,-184.01092551678593,-4617.59528535748,6433.796008466698,0.9948213499807226,-2.714640853685228e-05,0.00025647702038545056,0.10163864966214012
0.805,-2.3964920953893976e-06,0.0006373141549162857,-0.007162531469780477,-41.65075967655607,46.67659609115899,4.985017734540983,-1653805.0620997297,5085663.134964482,3590758.3220255636,-183.74614841979383,-4617.597102263052,6433.964642933684,0.9948231649263515,-2.735614007506384e-05,0.0002580754324347159,0.10162087961944744
0.81,-5.63123425260869e-06,0.0006622962028511759,-0.007165268442136893,-41.64302007403133,46.65042283378686,4.979879913646686,-1653805.980168863,5085640.046974412,3590790.4922702266,-183.48150490651713,-4617.598925469955,6434.133222312464,0.9948249840111192,-2.7528632531323863e-05,0.0002596593709224258,0.10160306593042367
0.8150000000000001,-3.275832560596073e-06,0.0006403462785031807,-0.00715405711643695,-41.64010083397406,46.648355096157175,4.973670351112733,-1653806.8969149797,5085616.958975271,3590822.663357521,-183.21694183069323,-4617.600731190004,6434.301695382036,0.9948268034529335,-2.7715517392817495e-05,0.0002613046194020833,0.1015852454019008
0.8200000000000001,-8.343586989896986e-06,0.0006399329566515427,-0.007159396896906385,-41.64093168247744,46.62197916376798,4.976334112053499,-1653807.8123383159,5085593.87096702,3590854.8352871416,-182.95239264977113,-4617.602568982595,6434.470152985238,0.9948286197406258,-2.78909624084631e-05,0.0002628958758266143,0.10156745272386312
0.8250000000000001,1.4063387643637085e-06,0.0006321249347386675,-0.0071273150211774335,-41.638263458395635,46.60689654669833,4.976922829342519,-1653808.7264390371,5085570.782949747,3590887.0080588195,-182.68789585669114,-4617.60434046638,6434.638518091893,0.9948304370630963,-2.8078909842340176e-05,0.0002644848170356984,0.10154964673599524
0.8300000000000001,5.261827051451138e-06,0.0006286590718305716,-0.007148765288540469,-41.623248635874965,46.59083959363799,4.978436993761991,-1653809.639217387,5085547.694923678,3590919.1816721987,-182.42344405787554,-4617.606086893759,6434.806833673033,0.9948322459268654,-2.824060499239037e-05,0.0002660568165209817,0.10153192049965148
0.835,2.3053969577565045e-06,0.0006187881290244761,-0.00714085947813774,-41.60707513140718,46.56917699695322,4.974819220870142,-1653810.5506737358,5085524.606888892,3590951.3561270544,-182.15909551387034,-4617.607827688898,6434.9751086468505,0.9948340599186555,-2.839184575137367e-05,0.0002676211731638296,0.10151414087985898
0.84,1.1296164408565722e-05,0.0006157076714656039,-0.007147995794799187,-41.6228209683948,46.55743121267688,4.979762919464763,-1653811.4608086222,5085501.518845391,3590983.5314230933,-181.89485897087064,-4617.609572621367,6435.143306889679,0.9948358715906379,-2.85479290045777e-05,0.00026916023010786647,0.10149638089253357
0.845,8.200078049054291e-06,0.0006326368491516462,-0.0071560631358690745,-41.61091392809044,46.54648159697005,4.970092318869302,-1653812.3696222305,5085478.430793347,3591015.7075600256,-181.630584419945,-4617.611245168104,6435.31146590951,0.9948376847563708,-2.8680874567362913e-05,0.0002706939064077856,0.10147860311809774
0.85,-1.6535037255035456e-06,0.0006529154761195052,-0.007146737562987829,-41.60265468077442,46.526790007101795,4.960964227755869,-1653813.2771146307,5085455.34273283,3591047.884537618,-181.36637561448967,-4617.612961505154,6435.479571187307,0.9948394996366111,-2.882582071210772e-05,0.00027226890103559107,0.10146080524761636
0.855,-1.2814619917848903e-05,0.0006331690414396593,-0.007151529092910089,-41.59481272708848,46.50682780493373,4.970030293444015,-1653814.1832861514,5085432.2546636965,3591080.0623555104,-181.10223269875704,-4617.614691961855,6435.647585714539,0.9948413118163268,-2.900041104537891e-05,0.0002738918318146154,0.10144303054330824
0.86,-9.489196597678774e-07,0.0006187485642756458,-0.007182079181809157,-41.5873313078755,46.49355208008915,4.967865271069499,-1653815.0881371773,5085409.166586058,3591112.241013372,-180.8381776342264,-4617.616363336077,6435.815558915939,0.9948431249035601,-2.919775565345948e-05,0.00027546282019197215,0.10142524389837725
0.865,2.2000311678419272e-06,0.0006253126839852852,-0.007140687530948426,-41.5801677810347,46.47024762551175,4.961548102001024,-1653815.9916680772,5085386.078500063,3591144.420510985,-180.5741823028985,-4617.618034507782,6435.983486213048,0.9948449454261634,-2.9361953513776192e-05,0.00027700094967268886,0.10140738123215463
0.87,-1.554771421192069e-05,0.000632565883755839,-0.007140774059554254,-41.577896019131224,46.449398854580586,4.96683330948532,-1653816.893879178,5085362.990405732,3591176.600847988,-180.31025807568298,-4617.619698221804,6436.151315039567,0.994846755129615,-2.9519955031737795e-05,0.00027855620612272415,0.10138962147620616
0.875,1.2542085753189991e-05,0.0006191717943157051,-0.007127137097283267,-41.57839767427701,46.43798318172387,4.95923639239068,-1653817.7947708068,5085339.902303225,3591208.782023985,-180.04639345191728,-4617.621304291889,6436.3190836867425,0.9948485645291325,-2.9723935815680945e-05,0.0002801250034395851,0.10137186148431256
0.88,3.7525411571618966e-06,0.0006227083588075397,-0.007130511919896762,-41.56577237867452,46.41649362725453,4.965285322841773,-1653818.6943431466,5085316.814192666,3591240.9640386743,-179.78254242641745,-4617.62291943462,6436.486792106852,0.9948503701652248,-2.98546498375814e-05,0.0002816676077416656,0.10135413535803046
0.885,9.425007879757653e-07,0.0006368722257683421,-0.007122948864922898,-41.5504000197635,46.391415970809376,4.958698819106017,-1653819.5925965016,5085293.726074133,3591273.146891776,-179.51879953384207,-4617.624493673777,6436.654448504574,0.9948521763349131,-3.0008123044197787e-05,0.0002832167804412195,0.10133640081162787
0.89,-2.5913955356035252e-05,0.0005915068819631324,-0.007119305871493423,-41.544631730383095,46.37776797546678,4.952726053018027,-1653820.4895314188,5085270.637947714,3591305.33058291,-179.25516734351834,-4617.626074220373,6436.822005264768,0.9948539802600582,-3.0172168111444573e-05,0.0002848004691037832,0.1013186850440372
0.895,2.1673857759319255e-05,0.0006345785578214202,-0.007152022968284317,-41.53835956037719,46.36859504576256,4.953149105402397,-1653821.3851482945,5085247.549813366,3591337.5151116797,-178.99158295454401,-4617.627665138659,6436.989502491467,0.9948557829750593,-3.0391515313514212e-05,0.0002862645255660282,0.10130097832725514
0.9,8.406825862309282e-06,0.0006214440625076448,-0.007149187405071452,-41.52666722498163,46.34870107259348,4.946213882407889,-1653822.2794473737,5085224.461671071,3591369.700477877,-178.72804872623368,-4617.629252572153,6437.156976611117,0.9948575936295926,-3.050343639977113e-05,0.00028784775644527397,0.1012831901686851
0.905,-2.7972790373011545e-06,0.000634656937273718,-0.007135865730865706,-41.53609468424692,46.327275670206355,4.9533110370919955,-1653823.1724289928,5085201.373520809,3591401.886681239,-178.46459891139912,-4617.630852004549,6437.324368119928,0.9948594032541981,-3.0645026695279256e-05,0.0002893949607487705,0.101265409040501
0.91,-3.03015261806474e-06,0.0006370891989775936,-0.007100847468761513,-41.51904518178686,46.30767412706889,4.944175268310993,-1653824.064093389,5085178.285362776,3591434.0737213907,-178.2011595899101,-4617.632361309605,6437.4916924127365,0.9948612091761615,-3.0817818633605206e-05,0.0002909721918909829,0.10124766101985476
0.915,1.777620461102879e-05,0.0006308705914627281,-0.007128427692568246,-41.510059623453245,46.29601339950696,4.93991569863386,-1653824.9544408512,5085155.197197116,3591466.2615979556,-177.9378253158157,-4617.633902946995,6437.658933556194,0.9948630059149626,-3.0991779932972e-05,0.00029255541610056395,0.1012300000626464
0.92,-2.2561925871946846e-05,0.0006380453183750639,-0.007125581346200751,-41.50880243430261,46.275939309612454,4.934795601801807,-1653825.8434717942,5085132.10902371,3591498.450310616,-177.6745518444641,-4617.635459328613,6437.826130666821,0.9948648093225497,-3.111243893247914e-05,0.0002941284369924034,0.10121227046206151
0.925,1.2028620098616126e-05,0.0006304618919340052,-0.007128642598647653,-41.500324103506934,46.265179556002145,4.926036081494127,-1653826.7311864702,5085109.020842565,3591530.6398590445,-177.41131862210878,-4617.636998704764,6437.993240771612,0.9948666116831717,-3.133523872129384e-05,0.000295709095935387,0.10119454793751845
0.93,-3.3556922765375668e-06,0.0005985810585155853,-0.007119969582777761,-41.49247486524396,46.23565893679266,4.933000600207694,-1653827.6175851081,5085085.9326536385,3591562.8302428904,-177.1481365306596,-4617.638571621438,6438.160297504376,0.9948684145082177,-3.147008981147964e-05,0.0002972796442361802,0.10117681774177179
0.935,9.955944935975084e-06,0.0006213916379488007,-0.007119451953440801,-41.48725645564338,46.22082428152452,4.931704434185449,-1653828.5026680916,5085062.84445703,3591595.0214618044,-176.8850567795134,-4617.640071760349,6438.327268152058,0.994870214844031,-3.163513385880043e-05,0.00029876700869940087,0.1011591090989062
0.9400000000000001,6.2399234141923525e-06,0.0006151650860258362,-0.007125299338665768,-41.48070404671119,46.19761964947017,4.929781654452807,-1653829.3864358095,5085039.756252951,3591627.2135154423,-176.62203045371908,-4617.641559992609,6438.494187012456,0.9948720147154484,-3.177283787569894e-05,0.0003003144735067672,0.10114140169944487
0.9450000000000001,-1.5428600130805333e-05,0.0006148428107417788,-0.007118258489587087,-41.460695195234756,46.18992463419906,4.934399611315797,-1653830.2688885804,5085016.668041496,3591659.4064034587,-176.3590778323286,-4617.643022291058,6438.6610194763325,0.9948738157519742,-3.1918214281640556e-05,0.00030184551158902805,0.10112367972745955
0.9500000000000001,1.3827498061328727e-05,0.0006152306597531894,-0.0071160407932651555,-41.46380113270769,46.15869315834479,4.9336248601086465,-1653831.150026874,5084993.5798227,3591691.6001256523,-176.09623966982616,-4617.644496062827,6438.827858007289,0.9948756146892965,-3.2117397506869954e-05,0.0003033702705765275,0.10110597525144707
0.9550000000000001,-4.866216642909595e-06,0.0006165501574253545,-0.007099393099585508,-41.44841969074646,46.14059559080664,4.922141027922347,-1653832.0298510927,5084970.491596706,3591723.794681729,-175.83344783366135,-4617.645901175489,6438.99457269417,0.9948774127508004,-3.22439116278656e-05,0.0003049033892149873,0.10108827623679698
0.96,3.077865181009712e-06,0.0006203423311655369,-0.0071059744539749775,-41.444283857934664,46.12214775921453,4.92454237787771,-1653832.9083615819,5084947.403363584,3591755.990071167,-175.57074778587136,-4617.647347842029,6439.161202314174,0.9948792062860851,-3.241724139940143e-05,0.0003064350666560085,0.10107061861016776
0.965,-1.77441335375303e-05,0.0006235412622109599,-0.007105633092011588,-41.442653900880764,46.1015598757494,4.914098169064154,-1653833.7855587201,5084924.315123321,3591788.1862936094,-175.3081075407703,-4617.6487574716875,6439.327774886944,0.9948810011659975,-3.2571775891360645e-05,0.0003079781826364642,0.10105294457590452
0.97,-1.4371367752734866e-05,0.0006241076982498161,-0.007076241369903174,-41.439027092177135,46.08367242557328,4.9177319274664875,-1653834.661442747,5084901.226876,3591820.383348656,-175.04550323394568,-4617.650170633404,6439.494243726864,0.994882795639144,-3.27789067909616e-05,0.00030952399462537736,0.10103527137431446
0.975,1.5971757916323517e-07,0.0006133759077116525,-0.007117199655776432,-41.42713710163961,46.06131328491116,4.9182183269622195,-1653835.5360138977,5084878.138621719,3591852.5812359173,-174.78295701130983,-4617.651542149572,6439.660660816942,0.9948845823730535,-3.2977769244986224e-05,0.000311072069689279,0.10101767124136746
0.98,-2.2434059951937846e-05,0.0006475694736648661,-0.007090158741835611,-41.41774544390534,46.04673393382457,4.910037059350184,-1653836.409272565,5084855.050360635,3591884.7799550844,-174.52050991864175,-4617.652891073697,6439.827006037766,0.9948863791447385,-3.313781140786993e-05,0.0003125971187863701,0.10099996919404734
0.985,7.202690518044407e-06,0.0006517537411120667,-0.007076389709513371,-41.4038932761124,46.02977227112279,4.916247098688795,-1653837.281219154,5084831.962092747,3591916.9795058114,-174.25812562990316,-4617.6542643203165,6439.99328470268,0.9948881687437484,-3.3362661904510284e-05,0.0003142015118797475,0.10098233438603811
0.99,-1.4467654061159051e-05,0.0006174116277591125,-0.007100008180834262,-41.3926963142971,46.01032792666059,4.91257797551382,-1653838.1518540853,5084808.873818064,3591949.179887851,-173.99584689707896,-4617.655608819237,6440.15953106689,0.9948899545512676,-3.351484478670831e-05,0.0003158237951882567,0.10096473376908584
0.995,-1.2254890990543311e-05,0.0006505498409682388,-0.007086374449564275,-41.390246445436794,45.98925009860642,4.912607328411916,-1653839.0211778365,5084785.785536661,3591981.3811009414,-173.73365360417122,-4617.656952314644,6440.325705214505,0.9948917460307489,-3.3712276970978886e-05,0.00031735519000746767,0.10094707439571236
1.0,2.7238813537411776e-05,0.0006267267627598832,-0.007082597733341798,-41.38594845213676,45.975491546135366,4.898578341396175,-1653839.889190756,5084762.697248634,3592013.5831447137,-173.47151421074852,-4617.65825861423,6440.491803575131,0.9948935337280577,-3.3912557692631553e-05,0.0003189695666420367,0.10092944889600959
1.0050000000000001,-9.755399220970185e-06,0.0006125574388703478,-0.007103537417375028,-41.37683888793713,45.94183056923337,4.908958631426643,-1653840.755893056,5084739.608953978,3592045.786018768,-173.20940576899312,-4617.659603662119,6440.65781809605,0.994895320180132,-3.400859418839258e-05,0.00032053465512435714,0.1009118327284918
1.01,1.408698375138106e-05,0.0006309602394291647,-0.007058519987702348,-41.35896885412693,45.92161089664389,4.897881753410899,-1653841.621285113,5084716.520652831,3592077.9897226635,-172.9474170387028,-4617.660855429141,6440.8237402162185,0.9948971116078367,-3.419308624486936e-05,0.00032205516635520096,0.10089416447786541
1.0150000000000001,8.124045429654637e-06,0.0005962411877661884,-0.0070793575344296755,-41.35247460033352,45.90993577403604,4.899440594605175,-1653842.4853674944,5084693.432345323,3592110.1942559434,-172.6855355340672,-4617.662147341971,6440.989571775138,0.9948988913535824,-3.4322882088391365e-05,0.00032362746745862633,0.10087660814388376
1.02,-1.2393636350281326e-06,0.0006277587057623863,-0.007066445277532594,-41.343772399514116,45.88590232134177,4.8948113197038925,-1653843.3481406108,5084670.344031391,3592142.399618306,-172.4237110587623,-4617.663425807431,6441.15537333294,0.994900676068896,-3.4458770231496457e-05,0.00032511190800470647,0.10085899995783269
1.025,1.6385668379791627e-05,0.000609146978424986,-0.007068468751550391,-41.34403696873412,45.86833516157624,4.893692262066118,-1653844.2096048081,5084647.255711097,3592174.6058094376,-172.161967819697,-4617.664691426335,6441.321079226499,0.9949024571885942,-3.4625884087329984e-05,0.00032667238060044343,0.10084142386093857
1.03,4.64754788983158e-06,0.000615131600818003,-0.0070768551491686565,-41.33046913363217,45.84173430082061,4.895237811564417,-1653845.0697603738,5084624.167384552,3592206.812828931,-171.90025846388434,-4617.665926793082,6441.486718085564,0.9949042385221736,-3.474446953294205e-05,0.0003281910041184166,0.10082384268664135
1.035,-7.391849901322323e-06,0.0006319932432862216,-0.007072123866616442,-41.30971263274078,45.8272222150331,4.8897683953153095,-1653845.9286076818,5084601.079051913,3592239.0206764066,-171.63866470239196,-4617.66712902302,6441.652272153726,0.9949060216503164,-3.4893766094592874e-05,0.0003297215534139893,0.10080624063054103
1.04,1.1357663954666085e-05,0.000621427485220497,-0.007040028240424253,-41.30659682496781,45.81136627242981,4.885815269031801,-1653846.7861473134,5084577.990713169,3592271.229351529,-171.37718800020727,-4617.668368250828,6441.817776868905,0.9949078032575251,-3.507725331560454e-05,0.00033129100827634,0.1007886503190701
1.045,-5.102492796283834e-06,0.0006283127836422385,-0.007070217309688811,-41.30381461485172,45.78371559419941,4.891576315445895,-1653847.6423796674,5084554.90236825,3592303.438854012,-171.1157536100295,-4617.669599249071,6441.983216373172,0.9949095764759055,-3.521141657776942e-05,0.0003328389103069791,0.1007711397918585
1.05,7.855281700316682e-06,0.0006228176409174803,-0.007052584989382347,-41.287321316149864,45.76600977934217,4.887022288046366,-1653848.4973050358,5084531.814017363,3592335.6491834773,-170.85439371519814,-4617.670755935593,6442.148569626253,0.9949113569806364,-3.538828046653253e-05,0.0003343997884272077,0.10075355415765677
1.055,1.3159137795788208e-05,0.0006213120364189986,-0.00705592939053455,-41.27691383267343,45.74420858378786,4.88320302592668,-1653849.3509238667,5084508.725660648,3592367.8603395503,-170.59313867128728,-4617.671929923761,6442.313859560215,0.9949131327373157,-3.5531515873147296e-05,0.00033595026390717254,0.10073601233795183
1.06,-2.723968119098299e-07,0.0006100605498910578,-0.007033210435218157,-41.277556113368135,45.720202075396216,4.877583076488407,-1653850.2032366372,5084485.637298082,3592400.0723218652,-170.3319694861287,-4617.6730964151375,6442.479066532462,0.994914909026144,-3.566118271581408e-05,0.0003374983298438216,0.10071846216388029
1.065,-8.481411039857711e-06,0.0006276100098679256,-0.007051965204431225,-41.26694667475204,45.70831010963543,4.875316818776517,-1653851.0542436566,5084462.548929754,3592432.2851299504,-170.07083825836796,-4617.67423479365,6442.644167393489,0.994916679291779,-3.582140538234193e-05,0.00033901503001244193,0.10070096847923522
1.07,-1.6067776381173168e-05,0.0006059006388483673,-0.007055971776955526,-41.26164612165124,45.68944830229673,4.86976421712262,-1653851.903945197,5084439.46055571,3592464.498763444,-169.80977792701094,-4617.675382707212,6442.809230006038,0.9949184539525688,-3.600648026503155e-05,0.0003405733123825025,0.10068342811993697
1.075,-2.604349877785692e-07,0.0006295892164807283,-0.0070515773444385895,-41.23964934026127,45.6589203664618,4.864032494585789,-1653852.7523415743,5084416.3721759375,3592496.71322205,-169.54877301640076,-4617.676526236461,6442.974212496738,0.9949202293278713,-3.620496365021571e-05,0.000342075687097383,0.10066587777196874
1.08,-2.0986901911664566e-05,0.0006087551028676527,-0.007031700206695918,-41.238316419559524,45.6318674740364,4.8647438088865975,-1653853.5994333047,5084393.283790438,3592528.9285052833,-169.2879191527833,-4617.677673541594,6443.139080801751,0.9949220032666545,-3.637008723532586e-05,0.0003436409608652857,0.10064833830706796
1.085,-2.4498972886669234e-05,0.000630869684535377,-0.00706302301694739,-41.23158243221288,45.61779554289898,4.865139844536696,-1653854.4452209168,5084370.195399342,3592561.14461261,-169.02712568477088,-4617.678764823093,6443.303849946957,0.9949237719092324,-3.6581504480271604e-05,0.0003451492003269372,0.1006308482709392
1.09,8.674804365071313e-06,0.0006178538463714215,-0.007038966272249582,-41.22342455905288,45.59797404701059,4.871807511614006,-1653855.2897047137,5084347.107002825,3592593.3615436754,-168.7663930470434,-4617.679842205913,6443.468576195667,0.9949255481012826,-3.680724787141368e-05,0.0003467115590668428,0.10061328029481831
1.095,-2.0845457852634327e-05,0.0006195617462624516,-0.007054406428858464,-41.21197374640928,45.58015182930249,4.866632931874911,-1653856.1328850614,5084324.018601043,3592625.579298253,-168.50574604410528,-4617.6808707039845,6443.6332549556855,0.9949273179450185,-3.6947182887434e-05,0.0003482498897434023,0.10059577209630666
1.1,-3.065173064497928e-07,0.0006141046889318072,-0.007040679857252939,-41.19763297731498,45.556104383467805,4.863304978495162,-1653856.974762378,5084300.930194096,3592657.7978760507,-168.24518062952214,-4617.681908274909,6443.7978639365865,0.9949290913564203,-3.716098714153384e-05,0.00034978504294159166,0.10057822548729367
1.105,-5.247032874222426e-07,0.0006026747225374102,-0.007064516464678477,-41.19066561258724,45.533588804188234,4.8549981261736415,-1653857.815337138,5084277.841781977,3592690.017276674,-167.98472332777615,-4617.682939305647,6443.962385408024,0.9949308610117987,-3.7322320254141714e-05,0.00035131178826835563,0.1005607129717794
1.11,-7.297320092588777e-06,0.0006099017222695778,-0.007027782227936355,-41.18130677703591,45.51318035354834,4.855896208668183,-1653858.654609776,5084254.753364699,3592722.2374996515,-167.72433190931702,-4617.683971794915,6444.126805554003,0.9949326363581649,-3.7481343476258695e-05,0.00035281004634289144,0.10054314113658842
1.115,7.184821317395749e-06,0.0005907087367898342,-0.00703963103400892,-41.17646494981423,45.49530005352956,4.851826899499026,-1653859.4925806688,5084231.664942321,3592754.4585445668,-167.46402513747742,-4617.684979232233,6444.291160666939,0.9949344021530659,-3.7658996593005736e-05,0.0003543245813435824,0.10052566064549137
1.12,-7.87838610753805e-06,0.0006075238307930334,-0.0070358408388726335,-41.1638087481505,45.47773016878294,4.85650666719923,-1653860.329250161,5084208.576514929,3592786.680411077,-167.20377179932308,-4617.685977707524,6444.455443345427,0.9949361706342222,-3.7795814773203895e-05,0.00035579501528163035,0.10050815064010121
1.125,-2.6294723920160355e-05,0.0006148934712572795,-0.007020893938396897,-41.15134684220802,45.44744350922277,4.858436615772396,-1653861.1646186346,5084185.488082611,3592818.9030989,-166.9436176237274,-4617.68694947143,6444.619685786103,0.9949379378364087,-3.7974322030069134e-05,0.00035730348939215967,0.10049065004268741
1.1300000000000001,1.2897129172940596e-06,0.0006066772277739832,-0.007008510890291089,-41.135652622484926,45.43027822854566,4.848819867657227,-1653861.9986866312,5084162.399645547,3592851.1266076853,-166.68358106079714,-4617.687875752591,6444.783828482598,0.9949397009657043,-3.820047515648738e-05,0.00035882566897335664,0.10047318660786023
1.135,-1.0247707613727843e-05,0.0005960804557079587,-0.0069937540912869516,-41.12719631358807,45.41280220712105,4.843846381412745,-1653862.8314546794,5084139.311203761,3592883.3509369944,-166.42363817792196,-4617.688838801059,6444.947895081722,0.9949414606862901,-3.835594125392382e-05,0.0003603343416995491,0.10045575391890432
1.1400000000000001,2.135328880905284e-05,0.0006173963928168364,-0.007014250595490988,-41.127113531292856,45.38139551710382,4.8407468422928,-1653863.6629231824,5084116.222757152,3592915.57608646,-166.16376302410765,-4617.689804743169,6445.111891315225,0.9949432164022529,-3.853743042435267e-05,0.0003618137603091771,0.10043835791573409
1.145,1.5871466780214166e-05,0.0006202498314810294,-0.007006806250104087,-41.106097793435815,45.35587888951666,4.841008826970054,-1653864.4930924536,5084093.134305848,3592947.8020555857,-165.90394545578664,-4617.690717050217,6445.275758892249,0.9949449769412252,-3.864568747440292e-05,0.00036335413208037325,0.10042091086875561
1.1500000000000001,-2.354139153878689e-05,0.0006300984081031673,-0.007014643139518796,-41.092702618134616,45.341633299366244,4.831951942333667,-1653865.321963,5084070.045850008,3592980.028843854,-165.64427312948507,-4617.691618845725,6445.4395484814195,0.9949467353001531,-3.876828939066446e-05,0.0003649002257705771,0.10040348231217908
1.155,-6.058912985515055e-06,0.0006080742312833242,-0.00698821329084697,-41.08928127210031,45.325680793297906,4.834063298047955,-1653866.149535382,5084046.957389568,3593012.256450909,-165.38467963208836,-4617.692557122974,6445.603273487764,0.9949484953053344,-3.899140475937689e-05,0.0003664609226405738,0.10038603426629522
1.16,4.644730582374978e-06,0.0006051879782346303,-0.006991412577517407,-41.07518998198367,45.286554494637265,4.8341084898568685,-1653866.9758099252,5084023.868924516,3593044.484876468,-165.1251376237654,-4617.693463556212,6445.766949960919,0.9949502483922136,-3.9165483188538777e-05,0.00036797122716152167,0.10036865191639043
1.165,-2.0546942900989193e-06,0.0006019135132748196,-0.007011033322626167,-41.0767855047829,45.26494539259633,4.827808185862567,-1653867.800787104,5084000.780455071,3593076.7141200597,-164.8657339203689,-4617.694314882524,6445.930486777207,0.9949520019794603,-3.9312216343380865e-05,0.00036947703783622526,0.10035126156821461
1.17,9.217022202305868e-06,0.0006111120712287834,-0.006959078769625056,-41.057942004338244,45.24839711170722,4.827535326395288,-1653868.6244673352,5083977.691981423,3593108.9441810874,-164.60635853141454,-4617.695144208438,6446.093924388669,0.9949537601844132,-3.94748101333708e-05,0.0003709730208905463,0.10033382239132793
1.175,2.139606100862456e-05,0.0006071200374070734,-0.006981118285925802,-41.04313741202419,45.22153426638171,4.826253859938392,-1653869.446850986,5083954.603503609,3593141.1750591914,-164.34710180195546,-4617.69598128621,6446.257317093629,0.9949555050442529,-3.961162595132325e-05,0.0003724947166436896,0.10031651240319707
1.18,-2.1623830022002785e-05,0.0006209809018350729,-0.00699449298458246,-41.04034062599443,45.204846450182835,4.816963167996587,-1653870.2679386474,5083931.51502166,3593173.406754026,-164.08796281211454,-4617.696798054178,6446.420616794312,0.9949572551319177,-3.971716710962625e-05,0.00037400953475698686,0.1002991475525819
1.185,1.4730666234739897e-05,0.0005878454957392943,-0.00699198560529608,-41.02448079381399,45.17568095309992,4.813326642243257,-1653871.0877307025,5083908.426535604,3593205.6392651494,-163.82885914521478,-4617.697624867423,6446.58383253211,0.9949590082500348,-3.99332037253262e-05,0.0003755480417003122,0.10028174944183496
1.19,-2.799754408020679e-06,0.0006058054432009206,-0.006970008257761721,-41.008245376125956,45.149661577084856,4.818476313639951,-1653871.906227548,5083885.338045447,3593237.8725920813,-163.56987906616365,-4617.698437566875,6446.746940212364,0.9949607604678865,-4.005050269957291e-05,0.0003770132420825565,0.10026435750623158
1.195,-5.9594101949091895e-06,0.0006268327796399357,-0.006976727168889552,-41.00032488692075,45.141053909404846,4.814372027010388,-1653872.7234298203,5083862.24955133,3593270.1067343755,-163.3110298869077,-4617.699209507322,6446.909977485985,0.9949625068529222,-4.0215888005259454e-05,0.00037851872396618555,0.10024702022108604
1.2,2.314770302128005e-05,0.000589035185427167,-0.00695922207681301,-40.99605201768789,45.113259198324805,4.810070797368578,-1653873.5393379729,5083839.1610533055,3593302.341691775,-163.05223114093118,-4617.7000001109855,6447.072982311678,0.9949642545968629,-4.039440882385447e-05,0.0003800757167216028,0.1002296661934492
1.205,6.14961729418603e-06,0.0006077976100177484,-0.006982877146009668,-40.97731038782142,45.093143296242104,4.806343413052783,-1653874.3539523024,5083816.072551409,3593334.5774639137,-162.79350066242287,-4617.700758593659,6447.235873209629,0.9949659976891053,-4.049104055331108e-05,0.0003815459864813054,0.10021235565367725
1.21,-9.392520321141448e-06,0.000604813935854744,-0.006989670966578427,-40.96717467999007,45.06779186734781,4.804757882651271,-1653875.1672732797,5083792.984045687,3593366.814050334,-162.53489029586888,-4617.701529939748,6447.398694876599,0.9949677463836326,-4.063467669432464e-05,0.0003830586651204462,0.10019498625758484
1.215,-1.8330926554540936e-05,0.0006006812286433314,-0.006978494476702899,-40.96242337640227,45.03828838636865,4.805158312894521,-1653875.9793014394,5083769.895536172,3593399.0514506334,-162.27637359056058,-4617.7022760788905,6447.561424961209,0.9949694964754036,-4.081623177006248e-05,0.0003845600281921343,0.10017759994680378
1.22,-1.2335907674023168e-05,0.000610178051906246,-0.006961847656067121,-40.95799824307174,45.020002517375325,4.797950021017513,-1653876.7900372145,5083746.8070230605,3593431.289664315,-162.01793638249745,-4617.70296863978,6447.724047706386,0.9949712434655649,-4.101897468033078e-05,0.00038604887392192463,0.10016024141493637
1.225,1.5908472584702996e-06,0.0006110137862381165,-0.006960525746684299,-40.94015613125163,44.9905290005792,4.79620287862863,-1653877.5994809235,5083723.718506482,3593463.528690902,-161.75954728593848,-4617.703662710874,6447.886587108759,0.9949729859744014,-4.120916734362698e-05,0.0003875628450621719,0.10014292425343588
1.23,2.5758561464498187e-06,0.0006067059036461552,-0.006948572708179399,-40.93549523060634,44.976922321172076,4.788096579977931,-1653878.4076330257,5083700.629986479,3593495.76852993,-161.50129357743856,-4617.704338497185,6448.049024039613,0.9949747278492534,-4.136492608340162e-05,0.0003890823817179421,0.10012561033595287
1.235,-7.517742823287971e-06,0.00060405514012911,-0.006975234758324612,-40.916056245589324,44.94244945949857,4.796923401846823,-1653879.2144939583,5083677.541463057,3593528.009180976,-161.24307947755537,-4617.705030516103,6448.211394308549,0.9949764664333122,-4.1517144712976014e-05,0.00039059145046705475,0.10010832611988674
1.24,7.43115801660426e-06,0.0005958051931534805,-0.006963120753379496,-40.893860959138124,44.926304000225564,4.789301437330001,-1653880.0200642333,5083654.452936345,3593560.2506436436,-160.98503046425319,-4617.705654326427,6448.373672665086,0.9949782113879604,-4.169383318964436e-05,0.000392091396578084,0.10009097556311601
1.245,2.378211864191774e-06,0.0005995211724272485,-0.006953610673353505,-40.88437766871812,44.89620588002805,4.783890101033454,-1653880.8243445717,5083631.364406402,3593592.49291755,-160.72710490538458,-4617.706322536729,6448.53588983793,0.9949799530167237,-4.1831260839415686e-05,0.00039357456316336506,0.10007365509487054
1.25,-1.2368897432385664e-05,0.0006146402535202562,-0.006955843533392979,-40.8769125983863,44.881134410473074,4.787814287102406,-1653881.627335518,5083608.275873175,3593624.736002236,-160.46927362062152,-4617.706968326395,6448.697984849142,0.9949816919587109,-4.198217774850924e-05,0.00039506570976844215,0.10005635825654818
1.2550000000000001,-5.07969779856609e-06,0.0006041252183474243,-0.006960393140541729,-40.87076609599281,44.8537157142686,4.772406023949244,-1653882.4290374834,5083585.187336791,3593656.9798973063,-160.21151258039424,-4617.707585298972,6448.860043171563,0.9949834311396702,-4.217356150985077e-05,0.0003965907751859362,0.10003905584658929
1.26,5.185493226246506e-06,0.0006219101555127462,-0.006949468841201498,-40.85940435084055,44.82881237763481,4.773748216873592,-1653883.229450798,5083562.098797281,3593689.2246023132,-159.9538131774162,-4617.708218561923,6449.02195949727,0.994985171166281,-4.234418840173539e-05,0.000398091507299981,0.10002174208304888
1.2650000000000001,8.087782545631543e-06,0.0005949353238495255,-0.006926225118522622,-40.845613712863475,44.80409065524085,4.78079025628713,-1653884.0285758704,5083539.010254689,3593721.4701166996,-159.69621581238763,-4617.708818562588,6449.183795179083,0.9949869081414692,-4.249371732737431e-05,0.00039963904667679267,0.10000445545072571
1.27,-1.2911266605290928e-05,0.0005945836809024534,-0.006906831077577194,-40.82979266509389,44.77897568496268,4.775420191284481,-1653884.8264132559,5083515.921709222,3593753.71644011,-159.43873837710888,-4617.70936818979,6449.345568893248,0.9949886390310945,-4.262925965930923e-05,0.0004011202149955099,0.09998722660605135
1.2750000000000001,-2.856229790644323e-05,0.0005919186044049215,-0.006934174431752163,-40.816419711036225,44.75369700722369,4.77201530399635,-1653885.6229635386,5083492.833161002,3593785.9635721473,-159.18137471423577,-4617.709919597329,6449.507245956384,0.994990364771251,-4.2816929168879985e-05,0.00040259526146673526,0.09997004599448206
1.28,2.1286928943143727e-05,0.0005973759849530273,-0.006946954562535648,-40.80431793415984,44.73196367233959,4.766081728651862,-1653886.418227267,5083469.744610054,3593818.2115123346,-158.92411663104164,-4617.7104596512645,6449.668829148797,0.9949920970461789,-4.304289168010951e-05,0.0004040597639902782,0.09995279735287103
1.285,-2.602035170841789e-05,0.0005953517345715784,-0.00692194882751095,-40.80099666429931,44.702866564225225,4.765250862833044,-1653887.2122049306,5083446.656056396,3593850.4602602194,-158.66694882488963,-4617.711003901168,6449.830324768083,0.9949938322127156,-4.3146231822361725e-05,0.0004055502965665036,0.09993551683968052
1.29,-1.2305456184667078e-05,0.0005760316078534426,-0.006917240673861866,-40.7787042032918,44.68404670003155,4.758151747501468,-1653888.0048969318,5083423.567500142,3593882.7098153066,-158.40985166924398,-4617.711497300703,6449.9917099895465,0.9949955608275463,-4.3366716993746944e-05,0.0004070239772317332,0.09991829854579498
1.295,2.845159838288473e-06,0.0006031817206207236,-0.006939414287906941,-40.77321868279102,44.657120847058145,4.765568365775005,-1653888.7963037705,5083400.478941332,3593914.960177143,-158.1528837845443,-4617.712027012964,6450.153024571928,0.9949972879875526,-4.354825562533791e-05,0.0004084530256064956,0.09990109192141274
1.3,7.255633934630818e-06,0.000618419948455355,-0.006916133202451834,-40.7678792471771,44.6520148717995,4.753072932420583,-1653889.586425987,5083377.390380057,3593947.21134536,-157.89600291417878,-4617.71248280472,6450.314262352373,0.9949990203587312,-4.369891064610964e-05,0.00040995339107291153,0.09988383009170053
1.305,-2.5146464721612933e-05,0.0005928401711751135,-0.006912568857589987,-40.75043909900907,44.611176859751254,4.751887978161072,-1653890.3752638537,5083354.301816368,3593979.4633196564,-157.63914374442695,-4617.712992987278,6450.475456209099,0.99500074660048,-4.3842375881170324e-05,0.000411492765350824,0.09986662613725195
1.31,-9.677274414267906e-06,0.000613597632965095,-0.006905720894977534,-40.73893334669758,44.58342376261182,4.75415952518483,-1653891.162817811,5083331.213250246,3594011.7160995537,-157.3824391254562,-4617.7134555603625,6450.636502538764,0.9950024716755024,-4.40600513020169e-05,0.0004129604204311039,0.09984943105518507
1.315,-3.188595067236626e-06,0.0006153244753726107,-0.006906046612543052,-40.726360951352795,44.56915814940628,4.754200256852252,-1653891.9490885173,5083308.12468192,3594043.969684458,-157.12584338935005,-4617.713874883715,6450.79745924821,0.9950041947222592,-4.4244421485172636e-05,0.000414483571930632,0.09983225295919301
1.32,-1.2780679711098647e-05,0.0006042411959028589,-0.006899650713950403,-40.71288065240937,44.53978675189112,4.7424504378268635,-1653892.7340764615,5083285.036111501,3594076.2240740457,-156.86933429573264,-4617.714292898523,6450.95837577632,0.9950059175503078,-4.4413082321047924e-05,0.0004160126382569009,0.09981507401606782
1.325,-6.3869944474374754e-06,0.0005743284068014387,-0.006899099381384397,-40.70221887397712,44.51093890683175,4.746356825759855,-1653893.5177821168,5083261.947538961,3594108.4792678813,-156.61292783209134,-4617.714723181087,6451.11915852582,0.9950076384941664,-4.4602831248210744e-05,0.00041751174176022407,0.09979791096408389
1.33,-7.293653114358757e-06,0.0006226858703450645,-0.006912335780732659,-40.68720597721221,44.49177512120555,4.738315075135448,-1653894.3002060126,5083238.858964404,3594140.7352654054,-156.3566305060064,-4617.715099480064,6451.279851071415,0.9950093590342208,-4.4769212087691245e-05,0.0004189380317568781,0.09978074925030454
1.335,-4.846232085350913e-06,0.0006215307240184453,-0.006909314904234019,-40.67401630760653,44.475386324597714,4.738895011571686,-1653895.0813486618,5083215.770387905,3594172.99206619,-156.10042913418073,-4617.715500056865,6451.440462892114,0.9950110825265713,-4.4949924971314765e-05,0.00042048438430057074,0.0997635545762454
1.34,-1.6737315665197014e-05,0.0005942132656524095,-0.006890702955742716,-40.65508136177203,44.43929648845173,4.735983053849024,-1653895.8612105388,5083192.681809421,3594205.2496699174,-155.8443216624954,-4617.715893560371,6451.601027913314,0.9950128049675628,-4.512425853445056e-05,0.00042202847400726537,0.09974636738423683
1.345,-7.266796413791541e-06,0.0005806140840015603,-0.006887585829563311,-40.65059538681867,44.41300059527453,4.736703570201839,-1653896.6397922547,5083169.593229037,3594237.5080761397,-155.58836466443478,-4617.71626019117,6451.761461036253,0.9950145224964694,-4.532133985523573e-05,0.00042350164740384864,0.09972922647576217
1.35,-2.3907866406775395e-05,0.0005959023722676612,-0.00689726991110215,-40.63917057902996,44.392783078145484,4.729494979578666,-1653897.417094367,5083146.504646939,3594269.7672842927,-155.33248038676265,-4617.716578609634,6451.92180030857,0.9950162389663805,-4.54914690118689e-05,0.00042494335378792636,0.09971209328296828
1.355,4.4091247927749555e-06,0.0005872928359739228,-0.00688380552818882,-40.62076241030397,44.36830957026952,4.7274816084134175,-1653898.1931172654,5083123.416063222,3594302.0272939284,-155.07667889124502,-4617.716908225865,6452.082053931564,0.9950179575346227,-4.570681484819182e-05,0.0004264189408914497,0.09969493598674706
1.36,-1.926699571288484e-05,0.0005777265576292518,-0.006883415461427548,-40.617090509783914,44.33143335957766,4.720285998656393,-1653898.967861477,5083100.32747787,3594334.2881046254,-154.82100581639986,-4617.71723307172,6452.242224875109,0.9950196724620048,-4.584956071239007e-05,0.00042788017044955915,0.09967781212477697
1.365,-8.68788484104532e-07,0.000590116259734539,-0.006879962012777819,-40.589544435925795,44.306697172887645,4.729192237772183,-1653899.7413275181,5083077.238890999,3594366.5497157783,-154.56541055800596,-4617.717514866592,6452.402236164105,0.9950213870029163,-4.604881779559507e-05,0.00042931170337715983,0.09966068922980874
1.37,1.1720437086061134e-05,0.0005983805509667896,-0.006883373702471586,-40.59285364182834,44.28941195240192,4.717608030697303,-1653900.5135160424,5083054.150302795,3594398.812126873,-154.30999920706037,-4617.7177669312705,6452.562201701171,0.9950231003755821,-4.62053915499351e-05,0.00043077864056581387,0.09964357487459535
1.375,-1.0100724874827434e-05,0.0005959325181604802,-0.006874444828102318,-40.57698558820967,44.260505997689336,4.718123150894919,-1653901.2844275245,5083031.061713317,3594431.07533755,-154.0545936146104,-4617.718024006654,6452.722069169227,0.9950248142939772,-4.633271124795783e-05,0.00043226927122222436,0.09962645198838141
1.3800000000000001,1.4395858873567151e-05,0.0005937235242317322,-0.006898881442566329,-40.56119630408889,44.227192402737224,4.714139123653805,-1653902.0540622992,5083007.97312263,3594463.3393473253,-153.79931620336941,-4617.718250888561,6452.881840921272,0.9950265256921168,-4.651369305494178e-05,0.00043374837823824896,0.09960935130747522
1.385,-2.039255675973255e-05,0.0005882064707486933,-0.006855685685405721,-40.54001058080371,44.213871734949265,4.697132029183056,-1653902.8224210113,5082984.884530866,3594495.6041556434,-153.54416870611445,-4617.718455014493,6453.041486373776,0.9950282428836472,-4.663321437873324e-05,0.00043522808748630316,0.09959218978281757
1.3900000000000001,-6.076675444214172e-06,0.0005887764754394505,-0.006867549465380052,-40.531852523544615,44.174901157520914,4.70004939618476,-1653903.5895042403,5082961.795937866,3594527.8697619964,-153.2891228527108,-4617.718744718783,6453.201054784677,0.9950299490259112,-4.683785369021308e-05,0.0004366854159443322,0.09957513571949327
1.395,-2.885072397676054e-08,0.0005844433162211193,-0.006857200941052816,-40.5153363134388,44.159325310269026,4.695926756506909,-1653904.3553125265,5082938.707343615,3594560.136165851,-153.03419161688217,-4617.718955840425,6453.3604869209175,0.9950316578276189,-4.700703600875896e-05,0.0004381477245776381,0.09955805209891555
1.4000000000000001,4.805711267321087e-06,0.0005847576852692759,-0.006864418595645565,-40.49070801105637,44.1316452830277,4.701944758413011,-1653905.1198464094,5082915.618748258,3594592.4033667305,-152.77936161812093,-4617.7191870168135,6453.519865005053,0.9950333637640822,-4.7160084033040166e-05,0.0004396007604947974,0.09954099418547906
1.405,4.7028284894792635e-06,0.0005836267312266699,-0.006857132785991932,-40.49444647915392,44.111779383873944,4.69911420366674,-1653905.8831065735,5082892.530151823,3594624.67136433,-152.52470394335828,-4617.7193870152205,6453.679174843305,0.9950350712020449,-4.7301191830877734e-05,0.0004410557805427242,0.09952391828267775
1.41,5.97257770213072e-06,0.0005681337876941694,-0.006873443454493984,-40.46794061016723,44.075863372405045,4.69562019381852,-1653906.645093498,5082869.441554478,3594656.9401582675,-152.27006591344815,-4617.719550674233,6453.838400220359,0.9950367765336107,-4.744226611856795e-05,0.0004425079623759412,0.09950686047472278
1.415,9.453104393186228e-06,0.0005753338456911109,-0.006839331551907682,-40.466779461591564,44.050748016039016,4.694481722911991,-1653907.4058076907,5082846.352956338,3594689.2097480153,-152.01561113436765,-4617.719705513209,6453.997498810499,0.9950384856448474,-4.757634568284914e-05,0.0004439219178937677,0.09948976206339444
1.42,9.14671016510522e-06,0.0005945180982736215,-0.006852976831289229,-40.45542270315701,44.029752083432236,4.68307912767381,-1653908.1652497423,5082823.264357536,3594721.4801330133,-151.76120954318804,-4617.719815297464,6454.156500346146,0.9950401859696547,-4.7703520060622795e-05,0.00044535465386650073,0.09947274847455186
1.425,-2.869195181574496e-05,0.0006157360361675723,-0.006838378451380864,-40.42591059420951,44.00563071320733,4.689669323700797,-1653908.923419982,5082800.175758121,3594753.751312767,-151.50688632754168,-4617.719950750527,6454.315401169787,0.9950418893727868,-4.7836242579046904e-05,0.00044683503464145146,0.09945570091040719
1.43,1.5902812267996775e-05,0.0005800310438945348,-0.0068508164728193505,-40.43019888561924,43.98047106774702,4.677008967294002,-1653909.680319077,5082777.087158066,3594786.023286904,-151.25275170657093,-4617.720070891803,6454.474253772835,0.9950435888242367,-4.80683520221618e-05,0.00044835879069623336,0.09943868967163483
1.435,3.038612240854819e-05,0.0005720221823040375,-0.0068572864674654385,-40.398942049360976,43.94362463736148,4.681202513787147,-1653910.435947534,5082753.998557439,3594818.29605497,-150.9986310494526,-4617.720180088438,6454.632972424719,0.995045291119538,-4.818066491349802e-05,0.00044980481117718493,0.09942164741689462
1.44,-1.7334248120109586e-05,0.0006002085453376307,-0.00687536380848789,-40.39564249976658,43.91469755041192,4.675544345730997,-1653911.1903059278,5082730.909956344,3594850.5696163657,-150.7447264756696,-4617.720257695309,6454.791585852391,0.9950469947395085,-4.825496555675718e-05,0.00045123450768216785,0.09940458902259018
1.445,-9.86940925512274e-06,0.0005852799464745647,-0.006833723692392156,-40.37044146235004,43.896918921864135,4.6807290534040655,-1653911.9433949583,5082707.821354941,3594882.84397052,-150.49088566085962,-4617.720303594354,6454.95007582479,0.9950487025190045,-4.845500124125648e-05,0.00045272245970243066,0.09938748567970333
1.45,-1.694925776241036e-05,0.000613975045735244,-0.006852195678130602,-40.36002464335525,43.85537367443148,4.673752265695487,-1653912.6952151747,5082684.732753319,3594915.119117049,-150.2372009300672,-4617.720345516178,6455.10853587365,0.9950503996756447,-4.8632710797548036e-05,0.00045417513470452913,0.09937048588563069
1.455,-1.4036460198544665e-06,0.0005962144241005381,-0.006816283086523124,-40.34552243251218,43.83083512636919,4.669163409594842,-1653913.4457672588,5082661.644151589,3594947.395055447,-149.98363273197313,-4617.720346434433,6455.266823278877,0.9950521010943145,-4.883518194340477e-05,0.00045569743118182773,0.09935344011541024
1.46,1.8808694129044506e-05,0.0005761975518653963,-0.006810104074966087,-40.32997879580089,43.81486117697307,4.668150125622476,-1653914.195051771,5082638.555549862,3594979.671785048,-149.7301720902223,-4617.720344419611,6455.425017186657,0.9950537933222634,-4.8994528980487755e-05,0.00045717941132488143,0.09933648363766653
1.465,-1.435201857933274e-05,0.000612993784479636,-0.006833098104575515,-40.31729248442307,43.779626167335415,4.655909431211067,-1653914.9430692336,5082615.466948133,3595011.949305499,-149.4768129403149,-4617.720347180884,6455.583163204726,0.9950554837502367,-4.90986170123748e-05,0.0004586166169865314,0.09931954248136189
1.47,2.965444192145862e-06,0.0005882471066853568,-0.006848384301726503,-40.313332914859544,43.7596651064194,4.664080193206177,-1653915.6898201718,5082592.378346393,3595044.2276162803,-149.22356243605375,-4617.720348780163,6455.741149320952,0.995057179549738,-4.9294359728485816e-05,0.000460137121656917,0.09930254412861671
1.475,-3.559531122138203e-06,0.0005832266088000559,-0.006815534634768742,-40.28692813081329,43.72693911587056,4.6581925582212245,-1653916.435305029,5082569.289744806,3595076.5067168726,-148.970380345735,-4617.720286120611,6455.899087580535,0.9950588788814632,-4.9440896830144234e-05,0.00046160036257963315,0.09928550770313223
1.48,4.4975200955785975e-06,0.0005806230979554458,-0.006812620730731195,-40.27346789890975,43.695973049602685,4.652596886404488,-1653917.17952441,5082546.2011435125,3595108.7866068543,-148.71737217997529,-4617.720231104871,6456.056905128819,0.9950605697720187,-4.960238168857558e-05,0.0004630494986107828,0.09926855297500305
1.485,1.4582686146494425e-05,0.0005686821105217058,-0.006778310005084366,-40.260736185708105,43.67617085781816,4.641769749554407,-1653917.9224790332,5082523.112542534,3595141.0672856155,-148.4644770219083,-4617.720160150693,6456.2145993182185,0.9950622596525692,-4.974317390747747e-05,0.0004644941577699965,0.09925160545762962
1.49,6.49883146961962e-06,0.000582618253963529,-0.006787200300780679,-40.25122840541442,43.65174313769933,4.641928609842441,-1653918.6641693881,5082500.023941839,3595173.3487526146,-148.21166492805202,-4617.720118063439,6456.3722002813,0.9950639407455076,-4.9855874943358856e-05,0.0004659116184184623,0.09923474325444978
1.495,7.779048379707808e-06,0.0005960312208536613,-0.006820455753470977,-40.24096893149796,43.61805317250008,4.63725004753259,-1653919.4045959099,5082476.935341433,3595205.6310074083,-147.9589437767924,-4617.720044283633,6456.529717275529,0.9950656237385925,-4.9992153574801244e-05,0.00046736174071033217,0.09921785891417792
1.5,6.898872371281524e-06,0.0005952363709691585,-0.00681712550932852,-40.21772559813134,43.59779522621211,4.644266080392925,-1653920.1437590874,5082453.846741477,3595237.914049451,-147.7063272702538,-4617.719938090028,6456.687099755891,0.9950673146749427,-5.012861331253051e-05,0.0004688455432162993,0.09920089181341768
1.5050000000000001,1.6867330008961316e-05,0.0005687268001155973,-0.006780208065204127,-40.205380370279315,43.56624401569272,4.631273315030096,-1653920.8816595676,5082430.758142104,3595270.197878314,-147.45386476407882,-4617.719810862816,6456.844445639208,0.9950690044948334,-5.026706159355964e-05,0.00047032715039386873,0.09918393296928371
1.51,-1.7769806553609312e-06,0.0005914588531195777,-0.006774374998864173,-40.189475930061285,43.53270913384221,4.62501658658239,-1653921.618297984,5082407.6695433445,3595302.482493539,-147.20150177163055,-4617.719693173009,6457.001644173594,0.9950706849035311,-5.037409488497982e-05,0.0004717452867202899,0.09916706592640769
1.5150000000000001,-5.347110935602362e-06,0.0005657947550656243,-0.006777910461896949,-40.18087702356088,43.504746159147196,4.621130761713554,-1653922.3536749044,5082384.580945209,3595334.7678944217,-146.94926643519798,-4617.719561155246,6457.158708986931,0.9950723635491989,-5.053313797747567e-05,0.00047321535138979717,0.09915021338476362
1.52,-7.943064622163859e-06,0.0005916115778308162,-0.006773323454644206,-40.15423269375034,43.48162369690238,4.629088803690137,-1653923.087790868,5082361.492347797,3595367.0540803527,-146.69711904200443,-4617.719403355307,6457.315663387511,0.995074042813487,-5.069470508089991e-05,0.00047462068644114983,0.0991333520268202
1.5250000000000001,1.8154639388566136e-05,0.000581394010092347,-0.006783220412360746,-40.14745229754547,43.4579661414788,4.612522275535459,-1653923.8206465335,5082338.403751236,3595399.3410509485,-146.44514718340693,-4617.719221136443,6457.472574862279,0.9950757206223978,-5.086912291272341e-05,0.0004760896026981919,0.09911650205106266
1.53,-1.0951590917868442e-05,0.0005918237972815087,-0.0067908026006426574,-40.12702139167495,43.43004926912414,4.610842696488315,-1653924.5522424793,5082315.31515551,3595431.6288057766,-146.19323110437327,-4617.719069291599,6457.629356458104,0.9950774006112854,-5.097609770643102e-05,0.0004775395662077566,0.09909962739631148
1.5350000000000001,1.0979212085582341e-05,0.0005876397482971355,-0.006780445571121757,-40.11093415164192,43.403707364109,4.618361159410243,-1653925.2825792043,5082292.226560568,3595463.917344277,-145.9414588389291,-4617.718907231462,6457.786043638437,0.9950790821738705,-5.115807288738409e-05,0.0004790082636849014,0.09908273388407524
1.54,-1.8967279100348606e-05,0.0005739791396738095,-0.0067837708769703685,-40.097927767474815,43.37686141397463,4.630555413373381,-1653926.011657401,5082269.137966567,3595496.2066660486,-145.68981988673391,-4617.71869348402,6457.9426649806355,0.9950807608902369,-5.12844420249084e-05,0.00048047198610850686,0.09906586608254059
1.545,1.023972552679646e-05,0.0005888261794886315,-0.006773260687284394,-40.08443690176363,43.3448384132033,4.611294084170765,-1653926.739477719,5082246.049373828,3595528.4967707833,-145.43830731617186,-4617.718402139127,6458.099228996258,0.9950824401545666,-5.1481929834896495e-05,0.0004818943077568614,0.09904899001767022
1.55,4.159224413365866e-06,0.0005720228984581959,-0.006756150503322318,-40.066906322661076,43.31059687874658,4.610064508668073,-1653927.4660407174,5082222.960782457,3595560.7876579235,-145.18689209328005,-4617.71814624672,6458.255627041372,0.9950841165143407,-5.161042298515361e-05,0.00048336079800081273,0.09903214003331126
1.555,7.610199335740288e-06,0.0005847286588175429,-0.006751928260963933,-40.04471808575759,43.28568176257861,4.604809734583626,-1653928.1913469965,5082199.872192447,3595593.0793267507,-144.93561949257452,-4617.717857846461,6458.411903827671,0.9950857883707916,-5.174986180755937e-05,0.00048478398320542135,0.09901533259511613
1.56,-9.639802238944822e-06,0.0005805696968207933,-0.006739227965272807,-40.051270396947885,43.254567750486885,4.602166616469763,-1653928.9153972666,5082176.783603842,3595625.3717767345,-144.68448858957032,-4617.717583782601,6458.568089753951,0.9950874588813371,-5.188385562038076e-05,0.000486239631369535,0.0989985356263912
1.565,-4.957769493076831e-07,0.000564636380042918,-0.0067367493062472075,-40.02640103073579,43.226712099741306,4.58330890433004,-1653929.63819195,5082153.695016781,3595657.665007318,-144.43338473600303,-4617.717240763575,6458.724143535684,0.9950891259663163,-5.205971780258052e-05,0.0004876806654021346,0.09898177024557264
1.57,2.5278855123266713e-06,0.0005869400460008095,-0.006744715021575785,-39.99777548779583,43.19308858668031,4.593762569053553,-1653930.3597314677,5082130.606431268,3595689.9590178235,-144.18242235730733,-4617.716964365062,6458.880058613712,0.9950907921741569,-5.2208886377835786e-05,0.0004890843246718104,0.09896501099360672
1.575,1.1341634879961705e-05,0.0006048633681023953,-0.0067172911636609045,-39.9837672723833,43.16190595937082,4.588592623041301,-1653931.0800166894,5082107.5178472735,3595722.2538077114,-143.93166627425444,-4617.716633475683,6459.035896565857,0.995092460041286,-5.235606083759945e-05,0.0004905442162854138,0.09894823189019801
1.58,-1.5547640472478904e-05,0.0005733653737741792,-0.006725290291854447,-39.96727161082968,43.13825174229758,4.591615047992432,-1653931.799048421,5082084.429264977,3595754.549376482,-143.68102641623727,-4617.716285403389,6459.191611736148,0.9950941208197469,-5.248570911460699e-05,0.00049205088001753,0.09893152096858153
1.585,-2.705183587038645e-05,0.0005673150586460191,-0.006735808104428133,-39.956023631607586,43.1082992319861,4.585041797960326,-1653932.5168272648,5082061.3406844875,3595786.84572366,-143.43051104287315,-4617.715910233013,6459.347259637704,0.9950957833287163,-5.267447025495401e-05,0.0004934725333953463,0.09891479015631367
1.59,-7.2348566761054056e-06,0.000574156091973953,-0.006742416821901609,-39.943479850595764,43.07978883066154,4.5795316019657575,-1653933.233353781,5082038.25210591,3595819.1428487683,-143.1800954647865,-4617.71552060184,6459.50278353884,0.9950974481607883,-5.28903676326078e-05,0.0004948762888020287,0.09889803316525086
1.595,1.1769295567854734e-05,0.0005864830813006058,-0.006730980788087409,-39.92813867127,43.055869746758106,4.578290761978795,-1653933.9486284803,5082015.163529313,3595851.4407512103,-142.9297842893241,-4617.715118307214,6459.658193323109,0.9950991143365052,-5.30586650196731e-05,0.0004963019615810706,0.09888125967969781
1.6,-1.0001047843936622e-05,0.0005654474992205888,-0.006739086440709244,-39.91070320030267,43.02452562534444,4.573767628375228,-1653934.6626519095,5081992.07495476,3595883.7394304983,-142.6795873871716,-4617.714702790915,6459.813521880021,0.9951007773880749,-5.3182717935180164e-05,0.00049776300006193,0.09886451459064256
1.605,-2.143649309333477e-06,0.0005944062528077227,-0.006746405091141307,-39.894306154033195,42.99307750419715,4.566079978764754,-1653935.375424686,5081968.986382319,3595916.038886132,-142.42952318012678,-4617.714274119725,6459.968731555089,0.9951024421821504,-5.335574095482516e-05,0.0004991663252266551,0.09884774933838864
1.61,-1.066480202159464e-05,0.0005649633198818418,-0.006723515636133686,-39.87920579578348,42.97377018383577,4.566479572786398,-1653936.0869474518,5081945.897812027,3595948.3391174916,-142.17958310529173,-4617.713842438405,6460.123812209014,0.9951041084648605,-5.3516382070123925e-05,0.0005006436333036995,0.09883096583715338
1.615,1.3566362754882504e-05,0.000598521643745366,-0.006708239943409898,-39.862671897082265,42.94212499323324,4.5676851690563325,-1653936.7972207847,5081922.809243917,3595980.640124109,-141.9297501039035,-4617.713401168922,6460.2788347704645,0.9951057688436117,-5.369091842292893e-05,0.0005020455919569852,0.09881423926577299
1.62,-4.019257489067866e-06,0.00056312304183754,-0.006712520737136082,-39.85390768208003,42.910261009373485,4.55321863899803,-1653937.506245294,5081899.720678111,3596012.941905577,-141.68005360931488,-4617.712921648112,6460.433752465025,0.9951074251272339,-5.381344425872675e-05,0.0005035370236825519,0.09879755063373573
1.625,1.9940667371667644e-07,0.0005773530552581044,-0.006722355539564526,-39.83285339589217,42.873145936654,4.557695587958578,-1653938.2140215253,5081876.632114683,3596045.244461244,-141.43043897275356,-4617.712449192993,6460.588514270504,0.995109082228225,-5.3970981183392496e-05,0.0005049360476199287,0.09878085135096082
1.6300000000000001,-5.8666334733498835e-06,0.0005744323801776765,-0.006727074774376244,-39.819221439881076,42.84560292504585,4.551298629177021,-1653938.9205501105,5081853.543553756,3596077.547790434,-141.18099507752297,-4617.711922199031,6460.7431617775665,0.9951107414578794,-5.412154956214028e-05,0.0005063715129339688,0.09876412756612807
1.635,7.511156928185746e-06,0.000567316004774577,-0.006708736379104623,-39.793930194520065,42.82651750841596,4.549479954810459,-1653939.625831742,5081830.454995474,3596109.851892582,-140.93165755665157,-4617.711390394608,6460.897697462774,0.9951124015723208,-5.428649370915166e-05,0.0005077982137095401,0.09874739202084742
1.6400000000000001,1.684803500115294e-05,0.0005845915140201539,-0.006708698174193954,-39.77286611722535,42.78355962947377,4.535272775170101,-1653940.32986706,5081807.3664398,3596142.1567672705,-140.6824695866892,-4617.710879033028,6461.052177964415,0.995114056887727,-5.441637673861281e-05,0.0005092105154009024,0.09873070205340663
1.645,1.0533735081435814e-05,0.0005909114124553283,-0.006709500335121474,-39.769383778182835,42.75740048510866,4.551375236930584,-1653941.032656831,5081784.277886669,3596174.462413886,-140.4334387738531,-4617.710373273416,6461.206468152982,0.995115711890998,-5.452729561536509e-05,0.000510668099299709,0.09871401213879806
1.6500000000000001,-1.3160163794250115e-06,0.000545937098461909,-0.006720109528923264,-39.74489555234045,42.732502502851844,4.542879601241222,-1653941.7342016657,5081761.189336345,3596206.7688318235,-140.18449518599317,-4617.709756468318,6461.360706814112,0.9951173668012002,-5.465548380472964e-05,0.0005121398472452782,0.09869732020779796
1.655,-3.4426638410017497e-06,0.000592564581457586,-0.00667323084295406,-39.72131241147188,42.69797057983302,4.530416413359018,-1653942.434502152,5081738.100789025,3596239.076020709,-139.93569929865652,-4617.709171323203,6461.514847318982,0.9951190241026726,-5.480206818506151e-05,0.0005134967829467939,0.09868060187661941
1.6600000000000001,6.940117281190267e-06,0.0005622064224380009,-0.0066827040743081744,-39.71784269090345,42.66762162246211,4.527815093979127,-1653943.133559048,5081715.012244574,3596271.3839799236,-139.68705908702637,-4617.70860947412,6461.668838650203,0.9951206694980157,-5.49653861083688e-05,0.0005149692000172679,0.09866400013860419
1.665,4.598463534740958e-06,0.0006079621813269182,-0.006672273401040663,-39.696059329945236,42.641343640678,4.528724850634641,-1653943.8313729193,5081691.923703048,3596303.692708793,-139.43848941568123,-4617.708000562316,6461.8227090486735,0.995122316991101,-5.509539776852896e-05,0.000516368651579364,0.09864737479616736
1.67,-1.6166275490310235e-05,0.0005644242765874254,-0.00670027745005128,-39.676746631814204,42.61141626187963,4.525283334988803,-1653944.5279443173,5081668.835164603,3596336.002206815,-139.1900697990508,-4617.707377531594,6461.976499726124,0.9951239615729467,-5.524250574153266e-05,0.0005178813583801676,0.09863077537223795
1.675,-9.176163095715983e-06,0.0005730968177594338,-0.0066793389144045225,-39.659394415751706,42.581746522673775,4.522783891166957,-1653945.223273967,5081645.7466293,3596368.3124735183,-138.94179004783842,-4617.70674402785,6462.130181683492,0.9951256128332518,-5.543057323605641e-05,0.0005192806270312399,0.09861410628468394
1.68,-4.976424713405721e-06,0.0005697499926915958,-0.006693312429122111,-39.64767382110397,42.547899863573164,4.5211476206200265,-1653945.9173625472,5081622.658097207,3596400.623508365,-138.69364209641626,-4617.706093000231,6462.283756998174,0.9951272586408196,-5.560336152006919e-05,0.0005207031974164382,0.09859748925025345
1.685,2.228474746031156e-05,0.0005833077167004425,-0.006667800444991229,-39.62992025194065,42.5209079349524,4.5153798629516535,-1653946.6102106755,5081599.569568475,3596432.935310774,-138.44560917994636,-4617.705399891332,6462.437206523746,0.9951289076176231,-5.576489482183538e-05,0.0005221184746296563,0.09858083741950643
1.69,5.932844447794143e-06,0.0005597434727415724,-0.0066787682048106865,-39.604224652059344,42.49135476254623,4.510025682046405,-1653947.3018189506,5081576.481043202,3596465.2478801687,-138.19770088397354,-4617.704709093094,6462.590551464119,0.9951305500134005,-5.5861915185487465e-05,0.0005235742030334948,0.09856424899286478
1.695,-4.769204905144771e-06,0.0005507419100631979,-0.006640218150887946,-39.59246951957908,42.45984465354249,4.50773873863325,-1653947.9921880977,5081553.392521356,3596497.56121602,-137.94995796737513,-4617.704029219361,6462.743788989989,0.9951321948613023,-5.599382410515824e-05,0.0005249672767286063,0.0985476332774006
1.7,-1.0276300859740956e-05,0.0005698750221985954,-0.006661825431147085,-39.57976896353385,42.42128802859191,4.503670070043663,-1653948.6813188058,5081530.304002995,3596529.8753177635,-137.70232522197563,-4617.703315259781,6462.896908412818,0.9951338299442274,-5.6150089593290295e-05,0.0005263353246574621,0.09853111345573584
1.705,-9.29115757412982e-08,0.0005643688305595367,-0.006651812614936113,-39.55487578723746,42.395232170590155,4.49665511636768,-1653949.3692116616,5081507.215488307,3596562.1901847264,-137.45481710753603,-4617.702559901035,6463.049876819859,0.9951354700465922,-5.632479725832066e-05,0.0005277496128737894,0.0985145398558579
1.71,-3.6627945184642207e-07,0.0005733909051659471,-0.006645539528771086,-39.54286176789537,42.3706332514431,4.499482659445743,-1653950.0558673602,5081484.126977337,3596594.5058162855,-137.20746236952743,-4617.701828445031,6463.20274667945,0.9951371074140243,-5.64728009674506e-05,0.000529152711866076,0.09849799112610853
1.715,1.2626551168522075e-05,0.0005692861393381618,-0.006621981304222237,-39.522616440829765,42.33274113183529,4.497442099018927,-1653950.7412865493,5081461.038470117,3596626.8222120046,-136.96021320353427,-4617.7010591670705,6463.355540997751,0.9951387429478167,-5.662369809915346e-05,0.0005305781897843465,0.09848145797448678
1.72,-4.277962768214356e-06,0.0005546348655811752,-0.0066403573898559595,-39.50456494371413,42.30321026826746,4.4906843119328865,-1653951.425469892,5081437.949966826,3596659.139371354,-136.7131239747406,-4617.700257390171,6463.5081987828635,0.9951403724130353,-5.6741229185340374e-05,0.0005319966577439781,0.09846498338817912
1.725,2.6010866956704262e-06,0.0005888209915992925,-0.006643334010323526,-39.484190902616284,42.28014392570296,4.4837369969881165,-1653952.1084181117,5081414.861467541,3596691.4572936986,-136.4661638661638,-4617.699456458091,6463.660739025683,0.995142006143387,-5.689723401302428e-05,0.0005333745115078821,0.09844846308221551
1.73,-5.424666413968045e-06,0.0005725529815911446,-0.0066146706098215696,-39.459976954413364,42.24386482536878,4.473896705851341,-1653952.7901318504,5081391.772972208,3596723.7759785196,-136.21933156135432,-4617.698676791885,6463.813189346771,0.9951436402853326,-5.7044542645243286e-05,0.0005348391079049172,0.09843193532947138
1.735,-8.373269597033718e-06,0.0005640272422887852,-0.006624860684384585,-39.45391956434719,42.21982709555941,4.483208587894783,-1653953.4706118396,5081368.684480748,3596756.09542522,-135.97266410665645,-4617.697907135987,6463.9654910724075,0.9951452671189875,-5.7207776649547845e-05,0.0005362612607488833,0.0984154788730385
1.74,-9.066513785570319e-07,0.0005533561344034573,-0.006612689437916187,-39.43327137670761,42.18217894902099,4.47928357385278,-1653954.1498587066,5081345.595993322,3596788.4156332803,-135.72608275063547,-4617.697063186739,6464.117732790795,0.9951468961962406,-5.737626235888822e-05,0.0005376614756442419,0.0983989970431138
1.745,1.558265960203489e-05,0.0005428612652716774,-0.006617810934505874,-39.41243607050301,42.1469803894285,4.473322573756641,-1653954.827873064,5081322.507510176,3596820.736602197,-135.47966022747116,-4617.696195507749,6464.269833956316,0.995148522020398,-5.752353067173029e-05,0.000539036980606825,0.09838254545799505
1.75,-9.615142791804092e-07,0.0005713735699603602,-0.006620093841552058,-39.393067519935386,42.117323127300615,4.470186510383094,-1653955.5046556906,5081299.419031392,3596853.058331279,-135.23339038612056,-4617.695318131941,6464.421798960999,0.9951501488466818,-5.762720130695082e-05,0.0005403904304516523,0.09836608108344691
1.7550000000000001,-1.5176512836346738e-06,0.0005762885039701675,-0.006631760061328616,-39.38208189719499,42.07984661429001,4.459373885390011,-1653956.1802073177,5081276.330557022,3596885.380819919,-134.9872604116817,-4617.694429700506,6464.573657044284,0.9951517759190441,-5.7779046462368265e-05,0.0005418107464153292,0.0983496110204284
1.76,3.23493058775399e-06,0.0005580207893760728,-0.006598079457520677,-39.3700299451805,42.05355617505987,4.46009014603835,-1653956.8545285603,5081253.242087134,3596917.7040674323,-134.74123667437874,-4617.693525322165,6464.725348177218,0.9951534055779778,-5.7933499460459e-05,0.0005432431515676891,0.09833311190611602
1.7650000000000001,-7.817111036796885e-06,0.0005700456740907132,-0.0065957251800267055,-39.34971454460613,42.032148293908186,4.458704895267148,-1653957.5276199493,5081230.153621852,3596950.02807318,-134.49531889921838,-4617.692587535878,6464.876950946457,0.9951550267084532,-5.8071592027550966e-05,0.0005446312818429153,0.09831669655432355
1.77,1.1633251670078158e-05,0.0005788787704715507,-0.006592189351735058,-39.319629179821106,41.99320702371839,4.459474105079793,-1653958.1994820784,5081207.065161251,3596982.3528367723,-134.24953279911392,-4617.691652708662,6465.0284859538015,0.9951566469696334,-5.8240133227496416e-05,0.0005460466123713291,0.09830028704607416
1.7750000000000001,-9.320873476616544e-06,0.0005620275129064369,-0.006602420472036551,-39.30699152549928,41.95475518446685,4.447652865044417,-1653958.870115801,5081183.97670539,3597014.678357727,-134.00395620443763,-4617.6906918512805,6465.179895836262,0.9951582660801661,-5.83624499301306e-05,0.0005474886989920767,0.09828388627982809
1.78,5.7643945412182675e-06,0.0005662864977003829,-0.006595268450347699,-39.29165141454163,41.94022020979896,4.44358125256404,-1653959.5395219256,5081160.88825436,3597047.0046352996,-133.75849366232507,-4617.689720074481,6465.331133275754,0.995159887451856,-5.85327717797247e-05,0.0005488837111672169,0.09826746006382533
1.7850000000000001,6.768672555029362e-06,0.0005643240784121119,-0.0065788100431379715,-39.26381304300839,41.89403889236025,4.449433710236057,-1653960.2077009717,5081137.799808142,3597079.331668931,-133.51312475433434,-4617.688767532157,6465.482319338493,0.9951615067900642,-5.8666599464196826e-05,0.0005502930261429545,0.09825105159307242
1.79,4.814696766709307e-06,0.0005511887766707421,-0.006585302925635309,-39.25201594224601,41.86480022892708,4.43787157638376,-1653960.87465372,5081114.711366854,3597111.6594581376,-133.26797464004068,-4617.687747622002,6465.6333632244605,0.9951631218166219,-5.879742391882416e-05,0.0005516977077503476,0.09823468404131878
1.795,1.7175292060129367e-05,0.0005410256091006624,-0.006565486142780729,-39.23512566355617,41.829917433490344,4.445965019966424,-1653961.5403809536,5081091.622930646,3597143.9880022258,-133.02291872120443,-4617.686735282735,6465.784272123335,0.9951647381841773,-5.8929892768755446e-05,0.0005530692289626708,0.09821830031370778
1.8,-5.550952756512674e-06,0.000574079029686162,-0.00657647069920608,-39.209156659622224,41.80829835925483,4.429800819701808,-1653962.2048832884,5081068.5344996825,3597176.3173006116,-132.77801517847757,-4617.685650455523,6465.9350821693915,0.9951663494309053,-5.9029086608470985e-05,0.0005544185029706786,0.09820196584618793
1.805,2.0814443739621477e-06,0.0005709981992783876,-0.006583477848340789,-39.192038346821285,41.771960701753954,4.428520771975754,-1653962.8681614513,5081045.446073961,3597208.647352784,-132.53325002502805,-4617.684637788023,6466.085786737954,0.9951679630547356,-5.919295141966806e-05,0.0005558444299319252,0.0981856040499458
1.81,-5.061601223391616e-07,0.0005529409100372823,-0.006587951910113556,-39.16911248831878,41.74069479059111,4.424146914681883,-1653963.5302161484,5081022.3576534,3597240.978158152,-132.28862878913682,-4617.683586645719,6466.236360491386,0.9951695781326475,-5.9337080926187746e-05,0.0005572645643241896,0.0981692247835574
1.815,-1.2530302359406457e-05,0.0005546151236395387,-0.006561990060918706,-39.161035842802015,41.71123234176757,4.424471802125758,-1653964.1910481318,5080999.269238102,3597273.3097161036,-132.04416457461093,-4617.682532751585,6466.386820081941,0.9951711940616421,-5.948322273756467e-05,0.0005586391376804928,0.09815283436552233
1.82,2.6596485677420496e-05,0.0005633003953274342,-0.006553284606266756,-39.14089879188894,41.6744805403818,4.412383655278808,-1653964.850658027,5080976.180828191,3597305.6420260887,-131.79979348538265,-4617.681431482722,6466.537173989499,0.9951728033451444,-5.9659654296490644e-05,0.0005600149295592932,0.09813650852853428
