t_s,gyro_x_radps,gyro_y_radps,gyro_z_radps,accel_x_mps2,accel_y_mps2,accel_z_mps2,ins_pos_ecef_x_m,ins_pos_ecef_y_m,ins_pos_ecef_z_m,ins_vel_ecef_x_mps,ins_vel_ecef_y_mps,ins_vel_ecef_z_mps,ins_quat_w,ins_quat_x,ins_quat_y,ins_quat_z
0.0,3.87993103068746e-06,0.000577236086230939,-0.007494098223068267,-48.92493654684724,55.54874589288001,5.137645058637085,-1658763.5840503734,5105149.374697655,3596773.925093057,-258.4057955714953,-5260.056020287632,7298.290012616031,0.9945218953682734,0.0,0.0,0.10452846326765353
0.005,-1.7281258234260333e-05,0.000580450738497186,-0.007492206522652868,-48.92949368757787,55.54842698354712,5.141988980341694,-1658764.8752941927,5105123.074404068,3596810.41703669,-258.0917320980483,-5260.061414483029,7298.4874404177235,0.9945238535591214,-1.411973116784038e-07,1.4361987243692119e-06,0.10450983063727838
0.01,-1.5493834709596712e-05,0.0005677159182083903,-0.007474023919229343,-48.93652198216248,55.54429006247917,5.148492195340735,-1658766.1649676743,5105096.7740835585,3596846.9099675026,-257.7776605898945,-5260.066789365161,7298.684884782032,0.9945258109046146,-3.35847792154586e-07,2.8748611890329457e-06,0.10449120267343737
0.015,-1.9458194546691137e-05,0.0005842505429079038,-0.007503032672708151,-48.94571486396627,55.54080707973597,5.142626054243697,-1658767.4530707751,5105070.473736279,3596883.40388555,-257.46357975373564,-5260.072122636132,7298.882334123464,0.9945277631502789,-5.227273530352054e-07,4.2823278243518335e-06,0.10447261988047972
0.02,1.1721105090755705e-05,0.0005789006971436356,-0.007479751216828762,-48.942829080050274,55.53372896752321,5.1476809556885454,-1658768.7396033816,5105044.173362322,3596919.8987907716,-257.14946284518606,-5260.07746007233,7299.0797546162485,0.9945297226216766,-7.237824279994749e-07,5.7298693608951205e-06,0.10445396492568283
0.025,4.961965011444119e-06,0.0005735263258183783,-0.007487579464100196,-48.94887913700236,55.531685508657894,5.141869321708312,-1658770.0245655,5105017.8729617335,3596956.39468309,-256.8353844864044,-5260.082775374773,7299.277172667274,0.9945316756626643,-8.459182871576234e-07,7.172251489661132e-06,0.10443536781883968
0.03,1.0986969117191064e-05,0.0005874297096957637,-0.007496282594247457,-48.959263654818805,55.521597866609625,5.125848006705098,-1658771.3079571652,5104991.572534534,3596992.8915624483,-256.5212815578475,-5260.088104361369,7299.474570601106,0.9945336303974157,-9.834565475400418e-07,8.599506409847145e-06,0.10441675121175682
0.035,5.951377071174601e-06,0.0005801293530312796,-0.007478776462581082,-48.95814440267818,55.524590348065196,5.136540141313428,-1658772.5897782098,5104965.272080624,3597029.3894285834,-256.20713633990863,-5260.093460015681,7299.671883525518,0.9945355870527803,-1.1096441871063702e-06,1.006290254109076e-05,0.10439811292877114
0.04,-7.654686846240329e-07,0.000559118485222641,-0.007465951087314886,-48.96727360286,55.52026413849571,5.148496322215182,-1658773.870028577,5104938.971599997,3597065.888281415,-255.89301053975703,-5260.098790582878,7299.869249096895,0.9945375387886978,-1.2464462159522432e-06,1.1506833290332398e-05,0.1043795181353067
0.045,-3.1864059991299467e-06,0.0005822883257830802,-0.007496053130261343,-48.987020021104875,55.51449751047535,5.137979722742598,-1658775.1487082867,5104912.671092887,3597102.388121119,-255.57887333706356,-5260.1040532347515,7300.0666323233645,0.9945394868293443,-1.3944655028847509e-06,1.289677108079994e-05,0.10436095519375604
0.05,-5.336481032432778e-07,0.0005649610072351136,-0.007478629099851144,-48.984528310012905,55.52095195993055,5.1333099134127735,-1658776.4258170978,5104886.370559475,3597138.888947588,-255.264651075029,-5260.109311384281,7300.263955362835,0.9945414423730299,-1.554550120992219e-06,1.4343685436811047e-05,0.1043423173713104
0.055,3.168414017905454e-05,0.000570387709467673,-0.007472738785607996,-48.97535761463294,55.51067223112928,5.149300982031225,-1658777.7013547963,5104860.069999658,3597175.3907607347,-254.9504283391168,-5260.114615757397,7300.461303305909,0.9945433930216774,-1.7035184881535866e-06,1.5748210001798854e-05,0.10432372283436399
0.06,1.4674062738696239e-05,0.0005678002371248997,-0.007472752956830105,-48.984494675497494,55.50932255951381,5.144881227930827,-1658778.9753215974,5104833.7694134675,3597211.893560672,-254.63629210780593,-5260.119860514408,7300.658671775636,0.9945453417846127,-1.7737969860786897e-06,1.7174630012504722e-05,0.10430514290490953
0.065,3.1515332568332133e-06,0.0005678861784781719,-0.007472247240640344,-48.986504174774524,55.499398390925876,5.137868412772203,-1658780.2477176227,5104807.468801044,3597248.397347412,-254.32211800263312,-5260.1251086605325,7300.856024186094,0.9945472902021538,-1.8856940005096744e-06,1.8590181024310467e-05,0.10428656290434676
0.07,5.513613603075968e-06,0.0005657822233041711,-0.007476573598298778,-48.993567316036945,55.492713406078984,5.1375612690921155,-1658781.5185427933,5104781.168162359,3597284.902120784,-254.0079502761799,-5260.130365590531,7301.053324634557,0.9945492381386968,-2.0262626482758553e-06,2.0002941601335987e-05,0.10426798412511065
0.075,-7.4342394469747325e-06,0.0005711662737135113,-0.007506878635328313,-48.996604264793014,55.492228602453,5.137752608918884,-1658782.7877970915,5104754.8674974395,3597321.4078805973,-253.69376897530785,-5260.13560184213,7301.250600652446,0.9945511868538468,-2.160410060750336e-06,2.141108665527258e-05,0.10424939455221144
0.08,3.1805453968356656e-06,0.0005631190926146974,-0.007472519574266937,-49.0032563660476,55.48816156411992,5.1378768139119595,-1658784.0554804674,5104728.566806341,3597357.9146268046,-253.37958139305047,-5260.14083790279,7301.447882243045,0.9945531431159568,-2.3281555611524596e-06,2.2829243807684505e-05,0.10423072959341977
0.085,-1.1401015680887522e-06,0.0005645453135882147,-0.007471997513311235,-49.01106987233701,55.481305756989094,5.132227280935108,-1658785.3215928655,5104702.266089099,3597394.4223593893,-253.06537785415784,-5260.146058452669,7301.64515161894,0.9945550900747235,-2.467409771788395e-06,2.4230158745815704e-05,0.10421215002709672
0.09,-1.975497338073228e-06,0.0005691151369002013,-0.007484487467623609,-49.013311003939684,55.46711742757375,5.136186316716154,-1658786.5861341874,5104675.96534576,3597430.931078219,-252.7511508447508,-5260.151277452334,7301.842380290756,0.9945570365483217,-2.6177783273975066e-06,2.5633494157211265e-05,0.10419357172249889
0.095,1.7719661241385683e-05,0.0005585154912567265,-0.0074740427799980524,-49.0138682233091,55.47120928772069,5.143789737743811,-1658787.849104442,5104649.664576436,3597467.440783095,-252.43695101940204,-5260.156451794294,7302.039570175043,0.9945589859254333,-2.7714151698678286e-06,2.7047974245509625e-05,0.10417496232636728
0.1,1.6588008403857425e-05,0.000598132701498943,-0.007495975375340052,-49.019411456294925,55.46958953807155,5.139265926936427,-1658789.1105037122,5104623.363781276,3597503.9514740384,-252.12275712224599,-5260.161612295747,7302.2368070554385,0.9945609322335146,-2.873320768529307e-06,2.8441228820616773e-05,0.10415637886199325
0.105,4.967912797107922e-06,0.0005825765620938025,-0.0074672793480911,-49.026425206441665,55.45520115172622,5.134632435090538,-1658790.3703319596,5104597.062960288,3597540.46315113,-251.80854176527933,-5260.166783425871,7302.434029573909,0.994562883899482,-2.9883576328061815e-06,2.99326928798725e-05,0.10413774082746942
0.11,9.704804726462783e-06,0.0005558033933833211,-0.007477035621388075,-49.02831008766971,55.459258315606036,5.132716281145179,-1658791.6285891181,5104570.762113495,3597576.975814165,-251.4943216334249,-5260.171933444109,7302.6311844366155,0.9945648277455691,-3.128234685147049e-06,3.138245301953773e-05,0.10411917410728153
0.115,-6.759599600562109e-06,0.0005390354305835173,-0.007473823179557771,-49.03496997192093,55.44836896344712,5.13342454688661,-1658792.8852751455,5104544.461240901,3597613.489463022,-251.18008935344128,-5260.177104293617,7302.828358392848,0.9945667737842555,-3.2493656359861324e-06,3.276687694528134e-05,0.10410058309227158
0.12,-3.076917750870184e-05,0.0005815693361853081,-0.007473415423606424,-49.02666366963683,55.438250061109834,5.142050326062328,-1658794.1403900045,5104518.160342536,3597650.004097653,-250.86585427918217,-5260.182241709888,7303.025494066359,0.9945687186389104,-3.4070698094538534e-06,3.410532385372969e-05,0.10408200002966281
0.125,-1.5803020177352e-06,0.0005772213326841454,-0.007454936271829008,-49.04492386724977,55.44040430080272,5.132246955952216,-1658795.3939338704,5104491.859418564,3597686.519717962,-250.55169207281207,-5260.187347134939,7303.2226295344335,0.994570663034479,-3.6355394197941782e-06,3.554328057141647e-05,0.10406341794605296
0.13,-8.759213801280001e-06,0.0005406078305215351,-0.007493375507855659,-49.0393546393397,55.42695796660401,5.134716879077523,-1658796.6459066952,5104465.55846903,3597723.0363238864,-250.23743783205077,-5260.192466419747,7303.419740261467,0.9945726022747784,-3.7903002184262593e-06,3.697802018817528e-05,0.10404488177048972
0.135,6.835548832103155e-06,0.0005709039249668745,-0.007463400361652393,-49.04829102423238,55.42078087179329,5.141770550321313,-1658797.8963083958,5104439.257493952,3597759.553915282,-249.92324241550403,-5260.197564678855,7303.616817734135,0.9945745511677136,-3.953390822922573e-06,3.831985513983455e-05,0.10402624998287933
0.14,7.744210134715117e-06,0.0005811737382577574,-0.007478989094627274,-49.04788056000715,55.42919628832231,5.130344543027605,-1658799.1451390856,5104412.956493514,3597796.0724920556,-249.609033516673,-5260.202610598854,7303.8138918238,0.9945764919128294,-4.085582142024466e-06,3.974107534731077e-05,0.10400769268820705
0.145,-1.348826047314819e-06,0.0005849509746934732,-0.007478672947579107,-49.04682476523184,55.41413836377574,5.125623384785297,-1658800.392398676,5104386.655467664,3597832.59205423,-249.29480257286735,-5260.207729523526,7304.010978051525,0.994578436361266,-4.21818602451819e-06,4.1188066938216755e-05,0.10398909659637055
0.15,-1.233151716440185e-05,0.0005735904670599791,-0.007460180741574886,-49.060577773892774,55.408043625652454,5.13558077992388,-1658801.6380871923,5104360.354416233,3597869.1126016765,-248.98060401362213,-5260.21284279407,7304.208000547608,0.9945803803772292,-4.374381195754309e-06,4.2642086471195455e-05,0.10397050125493962
0.155,7.0625755485447715e-06,0.0005767088740296962,-0.007496228037427759,-49.05697050640754,55.398510135428445,5.1320110789654425,-1658802.8822046374,5104334.05333942,3597905.634134238,-248.6663739984502,-5260.217882469369,7304.405024007468,0.9945823192387743,-4.5549294226789e-06,4.406500415668733e-05,0.10395195185829398
0.16,2.375416151496909e-05,0.0005893264730845385,-0.0074769191833419565,-49.05864858439446,55.386731554185545,5.138232082157028,-1658804.1247510202,5104307.752237389,3597942.156651827,-248.35217912119276,-5260.222929825399,7304.6020115039155,0.994584267118476,-4.688069476021146e-06,4.550071533177301e-05,0.10393331279291981
0.165,1.3686039189065854e-05,0.0006022897947624059,-0.007487618327149633,-49.06069646400743,55.39030091365661,5.129634776715923,-1658805.3657264991,5104281.451110238,3597978.6801542975,-248.03801242177457,-5260.227930258341,7304.798976836399,0.9945862096293319,-4.782982831476636e-06,4.6972136910459915e-05,0.10391472169957591
0.17,1.5462515339374075e-06,0.0005697869762793964,-0.007456193959198567,-49.06690119895282,55.38375878354088,5.127521947826182,-1658806.6051310932,5104255.149957972,3598015.204641591,-247.7238251912157,-5260.232976395999,7304.995940497497,0.994588154567824,-4.906299180617579e-06,4.8473175631775685e-05,0.10389610396761624
0.17500000000000002,2.6045169682912275e-05,0.0005654945307404359,-0.0074748918656323635,-49.066336983280465,55.37021342572347,5.138575554839406,-1658807.8429647202,5104228.8487805035,3598051.7301136325,-247.40962563706586,-5260.238011039991,7305.192876065188,0.9945900909987487,-5.051354651919778e-06,4.9890244234288215e-05,0.10387756433681047
0.18,-1.7545954451962203e-05,0.0005674212560856205,-0.007494126074976557,-49.076795087774734,55.36547138712784,5.129163718213175,-1658809.0792274685,5104202.547578025,3598088.256570317,-247.0954736701013,-5260.242980265065,7305.389797677553,0.9945920319377899,-5.134381778523202e-06,5.130300174356329e-05,0.1038589781747279
0.185,-2.386659354348842e-06,0.0005931976035366197,-0.0074610814837517666,-49.0747968560716,55.35626148383082,5.119879343016773,-1658810.3139193468,5104176.246350669,3598124.784011497,-246.78127767995943,-5260.247962114081,7305.58667441544,0.9945939775199211,-5.326300101374783e-06,5.270923142804941e-05,0.10384034415616228
0.19,-2.1004713303166615e-05,0.0005698477196696941,-0.00747188783563752,-49.07891897431748,55.36120351969261,5.129189081806373,-1658811.5470402953,5104149.945098335,3598161.312436931,-246.46710172252529,-5260.252971634973,7305.7834991747595,0.9945959141707794,-5.487212270914977e-06,5.4183489399909764e-05,0.10382179226362674
0.195,-4.3351596438821707e-07,0.0005639378177575863,-0.0074636736001721425,-49.07252035805323,55.34109101165721,5.133621283097786,-1658812.7785903406,5104123.643821018,3598197.8418466193,-246.15291636763533,-5260.257955136305,7305.980376092082,0.9945978532807332,-5.6883589363436215e-06,5.559485555748579e-05,0.10380321346765593
0.2,-1.3644294427188825e-05,0.0005724035610913518,-0.007479430767960667,-49.08580262056557,55.347352083713155,5.122742108365703,-1658814.008569652,5104097.342518889,3598234.3722405564,-245.83880821191823,-5260.262896394556,7306.1771988991495,0.9945997899114761,-5.836820619290355e-06,5.699686526397371e-05,0.10378465505717324
0.20500000000000002,-1.7301028211595744e-06,0.0005793619116295338,-0.007488917893603625,-49.087975939237595,55.33132277584005,5.130004400691727,-1658815.2369782259,5104071.04119196,3598270.9036185914,-245.52462138256362,-5260.2678753771215,7306.374014912726,0.9946017302801763,-6.0203296748105034e-06,5.8416497096666474e-05,0.10376605743184004
0.21,-9.139204204026644e-07,0.0005876289044582041,-0.007466283299703606,-49.07960368221197,55.32230856185968,5.123425015677025,-1658816.4638159533,5104044.73984029,3598307.4359806133,-245.21046956737155,-5260.272792606944,7306.57079397167,0.9946036727588907,-6.176020526251373e-06,5.9856521456437205e-05,0.10374743617834155
0.215,-1.4665603219613038e-05,0.0005639890232657228,-0.007464043520048306,-49.09458316922456,55.3168943601743,5.125094054928583,-1658817.6890830507,5104018.438463957,3598343.9693264356,-244.89636940955444,-5260.277740388083,7306.767534868471,0.9946056090159807,-6.3318227416986255e-06,6.131731379029478e-05,0.1037288711692418
0.22,4.761488282083151e-06,0.0005758438866127674,-0.0074853835259513285,-49.084066809061575,55.31305988585977,5.134691608325221,-1658818.9127795254,5103992.13706299,3598380.503655911,-244.58222040010372,-5260.2826462591765,7306.964255277864,0.9946075443471645,-6.515688018220062e-06,6.27157591257167e-05,0.1037103116955235
0.225,-4.458615704365805e-06,0.0005786357571614342,-0.007473035190364998,-49.09098935286884,55.30375366136685,5.12033573871837,-1658820.134905436,5103965.835637537,3598417.0389690627,-244.26814387668497,-5260.287535153771,7307.1610055454785,0.994609484860419,-6.654324487842139e-06,6.414871840708967e-05,0.10369169911981307
0.23,-3.391979863887653e-06,0.0005619910633677163,-0.007467626992614445,-49.097131434670416,55.29395711763119,5.129083065326333,-1658821.3554608985,5103939.5341875665,3598453.575265781,-243.9540411331932,-5260.292453053849,7307.357681641786,0.9946114218222195,-6.816608716491263e-06,6.55862298030256e-05,0.1036731172134958
0.23500000000000001,9.268295346962971e-06,0.0005659272163548119,-0.007464224475284397,-49.09977819127067,55.282506895448016,5.124083019599299,-1658822.5744458667,5103913.23271316,3598490.112545852,-243.63994614845762,-5260.297309368066,7307.554346825093,0.9946133570361261,-6.971925817289774e-06,6.698263021537541e-05,0.10365454871855487
0.24,-1.1870103947228503e-05,0.0005529950052372574,-0.007445804825273976,-49.09998707189839,55.28714684130653,5.116252314096548,-1658823.791860382,5103886.9312144825,3598526.650809116,-243.32585995064548,-5260.302161723191,7307.750958918668,0.9946152910194018,-7.096782149206138e-06,6.839209877718636e-05,0.10363598864558139
0.245,8.809244289325026e-06,0.0005769738826858022,-0.007465300579054262,-49.092942504273445,55.27257430513319,5.1209449287938735,-1658825.007704433,5103860.629691421,3598563.190055457,-243.01176044451034,-5260.3070630193415,7307.947577361072,0.9946172198847327,-7.270846160945278e-06,6.976393445732673e-05,0.1036174743414139
0.25,-6.418329550701069e-06,0.0005780630386973372,-0.007454650402391604,-49.09694996579229,55.26794248019723,5.124865581323584,-1658826.221978162,5103834.328143926,3598599.730284814,-242.6977311855382,-5260.311934978783,7308.144165387908,0.9946191534489849,-7.399705057564819e-06,7.120075112435813e-05,0.1035989115199683
0.255,1.388276999614869e-05,0.0005957350920954626,-0.00747406011747395,-49.098690228428204,55.25898612089589,5.120528908549381,-1658827.434681749,5103808.026572137,3598636.2714971066,-242.38370361133414,-5260.31678054606,7308.340751776924,0.9946210839063722,-7.566708235790496e-06,7.263633230188474e-05,0.1035803751471375
0.26,2.1220040106317468e-05,0.000568772211414014,-0.007459705570992795,-49.107334546987815,55.24405103280509,5.119385924171319,-1658828.645815221,5103781.724976118,3598672.8136922307,-242.06968516309516,-5260.321627071378,7308.537297812236,0.9946230190385995,-7.687811376705467e-06,7.412111256782e-05,0.10356179047071348
0.265,-1.3473022151691971e-05,0.0005545128350265215,-0.007452369405433667,-49.108607212687446,55.2397037401346,5.1264500148048295,-1658829.8553785838,5103755.423355965,3598709.3568699313,-241.7556599774587,-5260.3264340677315,7308.73378232918,0.9946249501108061,-7.78368650011942e-06,7.554074798127228e-05,0.1035432414505465
0.27,2.094499834758637e-06,0.0005953097190448836,-0.0074576810492953,-49.10344194030435,55.22994035543847,5.109422130826847,-1658831.0633718644,5103729.121711859,3598745.901030081,-241.44165221437862,-5260.331208550392,7308.9302774832595,0.9946268789384557,-7.962135543525769e-06,7.691594610196156e-05,0.10352471064286133
0.275,4.722979311188317e-06,0.0005782930379680743,-0.0074639674669860325,-49.11546308179584,55.21247188832693,5.118568932984853,-1658832.269795169,5103702.820043721,3598782.446172523,-241.12766966450593,-5260.336046427196,7309.12669939201,0.9946288087857362,-8.112434630010054e-06,7.839661734161278e-05,0.1035061665874368
0.28,7.430254715251109e-06,0.0005703122296767932,-0.007453974490273461,-49.11301599509631,55.2057675222835,5.1066380661956865,-1658833.4746485509,5103676.518351627,3598818.9922969597,-240.81368304418552,-5260.34079146185,7309.323075370042,0.9946307399149408,-8.251795713625835e-06,7.983565538285588e-05,0.10348760686397929
0.28500000000000003,1.457655635966774e-05,0.0005850809982089613,-0.007450499243310443,-49.111389335377034,55.208840466515404,5.107279089654746,-1658834.6779320345,5103650.216635695,3598855.5394031545,-240.49971044323485,-5260.345581152156,7309.519402485399,0.9946326681125106,-8.382358164696368e-06,8.125554913280546e-05,0.10346907195225191
0.29,-1.2326545267850242e-05,0.0005917468073623239,-0.007454581944578341,-49.102848761253014,55.19675100031015,5.116473853607098,-1658835.8796456768,5103623.914895776,3598892.0874910476,-240.18574645441527,-5260.350386574369,7309.715754834091,0.9946345950609669,-8.498970321138272e-06,8.271401522932872e-05,0.10345054564411876
0.295,-5.192366162681264e-06,0.0005707440383454039,-0.007472846642311859,-49.117290042503896,55.18976736088224,5.10680998431205,-1658837.0797896944,5103597.613131925,3598928.636560687,-239.87186064990783,-5260.355153591873,7309.912100732512,0.9946365227159488,-8.684204161817674e-06,8.41820984698259e-05,0.10343200915328286
0.3,-5.582298447065559e-06,0.0005659664836334024,-0.00746170306807209,-49.114101637111006,55.17327392714906,5.120608643493516,-1658838.2783641377,5103571.311344239,3598965.18661191,-239.55791668272585,-5260.359920895842,7310.108388559569,0.9946384547499884,-8.846271159120968e-06,8.559980073764246e-05,0.10341342720833253
0.305,-1.324359263045431e-05,0.0005803161401153786,-0.007440915155429957,-49.119205637845155,55.170485710093104,5.116537550897907,-1658839.4753690318,5103545.00953291,3599001.737644532,-239.24404087640752,-5260.3646106192255,7310.304660383606,0.9946403835554124,-9.008070214448607e-06,8.700552256222802e-05,0.10339487293689141
0.31,1.2454322715963646e-05,0.0005713188017270763,-0.007477278388953522,-49.11932774387464,55.160141545934714,5.112063941755841,-1658840.6708045043,5103518.707698115,3599038.28965847,-238.9301482047384,-5260.369307422561,7310.500914749221,0.9946423066369373,-9.192624528743434e-06,8.844494634780723e-05,0.10337637032194531
0.315,3.4379462647492687e-06,0.000575328321532849,-0.007462469071876745,-49.124546074340365,55.152324411991515,5.117648004396546,-1658841.8646705605,5103492.405839832,3599074.8426535674,-238.6162742127339,-5260.374005863759,7310.69712410443,0.9946442387708504,-9.310961015196462e-06,8.98686378262776e-05,0.10335777724433522
0.32,2.0002718538933505e-05,0.0005680839713795081,-0.007458617239777587,-49.116289016724494,55.140616751822606,5.109851550409051,-1658843.056967257,5103466.103958163,3599111.3966296837,-238.30240440645815,-5260.378661591861,7310.893322536657,0.9946461667280873,-9.452750426006786e-06,9.129996995081322e-05,0.10333922095740451
0.325,5.686362415376111e-06,0.0005530680736377332,-0.0074514334772436165,-49.120427456714246,55.12535150091266,5.116613290949086,-1658844.2476947405,5103439.802053143,3599147.951586661,-237.9885890260306,-5260.3833462046805,7311.08946830527,0.9946480933442118,-9.55147717248057e-06,9.27175676983055e-05,0.10332067420872894
0.33,6.338307165311117e-06,0.0005510779850707181,-0.007449536648943443,-49.12429757865792,55.117655511429064,5.109908407668776,-1658845.4368532074,5103413.500124857,3599184.5075242743,-237.67479773337806,-5260.38796863983,7311.285577127939,0.994650017760442,-9.681922959568186e-06,9.409412881088717e-05,0.1033021452909272
0.335,8.129642926818549e-07,0.0005647782881739112,-0.007466643047086973,-49.12383611804987,55.10730723516042,5.1159094237371825,-1658846.6244427036,5103387.198173435,3599221.064442323,-237.3610006484078,-5260.392599849221,7311.48164225616,0.9946519413403154,-9.810233203888276e-06,9.54659097007145e-05,0.10328362105368499
0.34,-1.983794341913954e-06,0.0005608436192294651,-0.007446732684668299,-49.11915742090132,55.109709851657456,5.111601215019764,-1658847.8104633007,5103360.896198954,3599257.622340659,-237.04723827506834,-5260.397192604963,7311.677692141503,0.9946538689860893,-9.955824552296725e-06,9.68703310267686e-05,0.10326505424403817
0.34500000000000003,-8.086702203454106e-06,0.0005956219692140734,-0.0074432743907324374,-49.11838549499541,55.09198726826499,5.105140076878025,-1658848.9949151292,5103334.594201409,3599294.181219273,-236.73349305249752,-5260.401825376364,7311.8737533004805,0.9946557911450091,-1.0107349807902e-05,9.82642467117263e-05,0.10324653690887359
0.35000000000000003,-3.403781865495019e-06,0.0005714034348139747,-0.007440980565408645,-49.119958255764146,55.07683020680432,5.105253150213919,-1658850.1777983152,5103308.292180714,3599330.7410779926,-236.4197813903125,-5260.406452601894,7312.069734714251,0.9946577120559341,-1.0283026802525299e-05,9.97430684076097e-05,0.1032280281378765
0.355,-3.6236515157340204e-05,0.0005789183613781599,-0.007453872417438634,-49.12334485585856,55.06854750972362,5.1041263820791505,-1658851.35911301,5103281.99013696,3599367.3019164875,-236.10609654972657,-5260.411049369922,7312.265663193219,0.9946596320346244,-1.0440808385633108e-05,0.00010116287576926808,0.10320952503430889
0.36,-8.631167748625674e-06,0.0005689026150184073,-0.00745484019394395,-49.12042685979066,55.0577197690613,5.106256911497665,-1658852.5388592922,5103255.688070254,3599403.8637345494,-235.79241628237457,-5260.415632554873,7312.4615615988005,0.9946615549901013,-1.0682175741579103e-05,0.00010259289811735034,0.10319098984534526
0.365,-1.5984580207720326e-06,0.0005661616485826967,-0.007419719612232518,-49.13090119196759,55.051548241455585,5.096203581198296,-1658853.7170372768,5103229.3859806815,3599440.4265320385,-235.47877761935837,-5260.420196525315,7312.657434074542,0.9946634778510542,-1.0852314560619135e-05,0.00010400513626693524,0.10317245220699285
0.37,-1.5664015501644517e-06,0.0005734706225991613,-0.007444684649368408,-49.12111759680057,55.0341685620138,5.094613270118949,-1658854.8936469622,5103203.08386826,3599476.990308759,-235.16509651549006,-5260.424772354497,7312.853254067213,0.9946653913083526,-1.1004249314716136e-05,0.00010541237343995753,0.10315400186391074
0.375,9.53560850459212e-06,0.000578453885878831,-0.0074503276009425,-49.12052412641774,55.0236169089532,5.109626785315731,-1658856.0686884406,5103176.781732972,3599513.5550644365,-234.8514948899749,-5260.429342726934,7313.049016951492,0.9946673108564216,-1.1157995805195185e-05,0.00010683779311520178,0.10313548940515119
0.38,-3.0629114931423165e-05,0.0005755991682667335,-0.007431524011850888,-49.12643632726689,55.021622297396256,5.096576635274423,-1658857.242162029,5103150.479575018,3599550.1207989515,-234.53794046982543,-5260.433838896507,7313.244789076464,0.994669231511568,-1.1285421661010308e-05,0.00010827846684659252,0.10311696287517197
0.385,1.075672793953968e-05,0.0005747811104211724,-0.007437731861332341,-49.12099350164888,55.00137021492673,5.092887179958222,-1658858.4140677617,5103124.177394477,3599586.6875122273,-234.22435258161292,-5260.43837763964,7313.440521176983,0.9946711469726566,-1.1511983034793834e-05,0.00010970168816063323,0.10309848307862635
0.39,-2.742807959027542e-06,0.0005742072440085517,-0.007457189424410136,-49.114728362267414,55.00316489221604,5.097461300995305,-1658859.5844057114,5103097.875191273,3599623.2552039674,-233.91082727041913,-5260.442903728675,7313.636174951434,0.9946730636895303,-1.1635421996307972e-05,0.00011113354205560111,0.10307998779800209
0.395,-2.305580839918326e-05,0.0005616623367053109,-0.007449817638265334,-49.12850579202482,54.989542724868045,5.1003408333216385,-1658860.7531761262,5103071.572965423,3599659.8238740643,-233.59733868422856,-5260.447436632955,7313.831863681709,0.9946749850735241,-1.1792287536206496e-05,0.00011256048949217508,0.10306144410041464
0.4,-7.39601964962343e-06,0.0005568757829140045,-0.00743673000498697,-49.120273230945735,54.972458011535636,5.090426886544037,-1658861.9203790305,5103045.270717064,3599696.393522481,-233.2838230029299,-5260.451906574488,7314.0275030728835,0.9946769042137066,-1.1996430840421951e-05,0.00011395100812515702,0.10304291870424867
0.405,-8.519273542884872e-06,0.0005715093224558344,-0.007419843186641888,-49.11236867594398,54.966419556258465,5.089770254292447,-1658863.0860145097,5103018.968446295,3599732.9641488935,-232.97036864053862,-5260.456401396721,7314.223061964194,0.9946788196378844,-1.2160396285425846e-05,0.00011533365850055164,0.1030244258127997
0.41000000000000003,-3.496422313319855e-06,0.0005741510401190233,-0.007451382704215442,-49.11134412356636,54.94613609685764,5.104663430431966,-1658864.2500828458,5102992.666153018,3599769.5357530755,-232.65696587855498,-5260.460909153376,7314.418610765872,0.9946807303634054,-1.2330919079322851e-05,0.00011675240922244396,0.10300597487789585
0.41500000000000004,-1.982481157783397e-05,0.0005613757421633572,-0.007444857628435042,-49.11091584970213,54.94102189748755,5.0938343469654095,-1658865.412584335,5102966.3638374405,3599806.1083349255,-232.3436297690042,-5260.465321791481,7314.614129308817,0.9946826488644513,-1.2489641023153648e-05,0.00011817902155482919,0.10298744547626323
0.42,1.6877771953086115e-06,0.0005806021253629168,-0.0074362296842717555,-49.11651076246029,54.917415157550586,5.0877481715424056,-1658866.5735191521,5102940.061499701,3599842.6818942656,-232.03029708142165,-5260.469774179951,7314.8096067510105,0.9946845653418821,-1.2685675710270309e-05,0.00011956966158396912,0.10296893226988776
0.425,1.657508876736252e-05,0.0005591697890045245,-0.007420245659745577,-49.12340524805517,54.91184668633723,5.09306298930304,-1658867.7328873463,5102913.759139783,3599879.2564307232,-231.71698056307437,-5260.474192971273,7315.00497618587,0.9946864792470222,-1.2833161514215263e-05,0.00012101365013239878,0.1029504404758408
0.43,-8.843239727064993e-08,0.0005651410552325801,-0.007445708397447985,-49.10812740876486,54.89759484835513,5.089565110814405,-1658868.890688938,5102887.456757871,3599915.8319440177,-231.40365619113334,-5260.478571736922,7315.200341594442,0.9946883887001626,-1.293810578799429e-05,0.00012240817465188967,0.10293198838999683
0.435,-7.136650629888042e-06,0.0005599435437750536,-0.007424747565282956,-49.10838912532669,54.88592830355389,5.085785822339208,-1658870.046924148,5102861.154354014,3599952.4084340264,-231.0904277200332,-5260.482970972854,7315.395661884949,0.9946903043578227,-1.308603196267756e-05,0.00012381325915481243,0.10291347295458865
0.44,-5.8494444827874404e-06,0.000570228633637084,-0.007445675311025746,-49.111036091209996,54.879014107289876,5.083378209137844,-1658871.2015932684,5102834.851928173,3599988.9859005148,-230.77722052310068,-5260.487365760706,7315.590933601464,0.9946922142783309,-1.3250141395722228e-05,0.00012520360612326985,0.1028950096096115
0.445,-1.8705460732132013e-05,0.0005518165151353551,-0.007432334710606115,-49.10917684301458,54.861647923245556,5.090820235905829,-1658872.3546963623,5102808.5494803665,3600025.564343293,-230.46401700916334,-5260.491756639375,7315.786177804387,0.9946941292333966,-1.3413702150959042e-05,0.00012661985971972053,0.10287649418646913
0.45,1.543795144118929e-05,0.0005639259532100281,-0.007412558791952796,-49.11161273139282,54.85677538863626,5.087821986527507,-1658873.5062335774,5102782.24701075,3600062.1437621964,-230.15086901313504,-5260.496090167998,7315.981383480424,0.9946960404167832,-1.3604492752780592e-05,0.0001279870211993454,0.10285801190677193
0.455,2.510256054993829e-05,0.0005737213780325738,-0.0074245449704483085,-49.11305214581515,54.84817605579569,5.073162952119233,-1658874.6562050527,5102755.944519456,3600098.7241570763,-229.8377211666435,-5260.500427245222,7316.17656844934,0.9946979461677364,-1.3713485111822251e-05,0.00012939307614125343,0.10283957875769056
0.46,6.991098657920892e-06,0.0005864604422439818,-0.007415984915456058,-49.100059708844064,54.834909659958335,5.089647281290623,-1658875.8046107802,5102729.642006369,3600135.305527712,-229.5245697605567,-5260.50480729038,7316.371685835347,0.9946998546533272,-1.3800966319767219e-05,0.00013082597411066615,0.10282111576299739
0.465,-1.4956396746646526e-05,0.0005709297864183796,-0.007417052180541951,-49.11046199050131,54.82979908355937,5.082269033452143,-1658876.9514510243,5102703.339471535,3600171.8878739667,-229.21152784628174,-5260.509126554848,7316.566816038335,0.9947017605893429,-1.3936758006507895e-05,0.0001322858955916229,0.10280267402490192
0.47000000000000003,2.420837252406619e-05,0.0005535290403114265,-0.007409513845213266,-49.11168085822922,54.80336338137739,5.078214530934092,-1658878.0967259568,5102677.036915095,3600208.471195771,-228.8984452340425,-5260.513449616334,7316.761905592458,0.994703666459983,-1.412313658981355e-05,0.00013370155540987108,0.10278422960502304
0.47500000000000003,-1.261789527164429e-06,0.0005665276324410291,-0.007427889928133207,-49.10936801544307,54.796087903301874,5.081604449654038,-1658879.2404355851,5102650.734337136,3600245.0554927476,-228.58540606072992,-5260.517733536409,7316.956885018135,0.9947055700571383,-1.4207647993830662e-05,0.0001350840077848101,0.10276580388318432
0.48,-2.771858809719526e-06,0.000552787953170905,-0.007430536863127931,-49.106878544059626,54.776920512824184,5.073929739385261,-1658880.3825801024,5102624.431737803,3600281.6407645997,-228.27240084721106,-5260.522000016172,7317.151855869712,0.9947074780259683,-1.4358843405821586e-05,0.0001364922402361014,0.10274733243695408
0.485,3.558845320384851e-06,0.0005773462460263566,-0.007415836051301028,-49.09630351539836,54.77468974030878,5.072744186435344,-1658881.523159699,5102598.129117138,3600318.2270110874,-227.9594378227452,-5260.526265870617,7317.346739117858,0.9947093863342666,-1.451026562057412e-05,0.00013786591725176064,0.10272885437377258
0.49,-2.485150631133562e-05,0.000535182124108339,-0.0074062382011971855,-49.093863626257985,54.746997802030904,5.073662414442418,-1658882.6621746204,5102571.826475071,3600354.814232006,-227.64653072022628,-5260.530560905071,7317.541628464892,0.994711290514274,-1.4652246849621976e-05,0.00013930229152893844,0.10271041282952222
0.495,-1.056539947510938e-05,0.0005512935235672424,-0.007412887191012713,-49.09274046553404,54.74754764186928,5.082917833172055,-1658883.7996251774,5102545.523811664,3600391.402427126,-227.33369208426606,-5260.5348018079385,7317.736419594576,0.9947131919000419,-1.4854048239020556e-05,0.00014062651819193148,0.10269199512897839
0.5,8.785415466850764e-06,0.0005554789563039364,-0.007415184346923074,-49.08945725065669,54.73700247225711,5.078513211659602,-1658884.935511596,5102519.221127115,3600427.9915962983,-227.02087534005003,-5260.539017663182,7317.931249240485,0.9947150946445127,-1.5024461792916232e-05,0.00014199447778548543,0.10267356085279214
0.505,1.372708875069293e-05,0.0005579006069513727,-0.007432027516076597,-49.09822305202459,54.72479669341401,5.076217088021815,-1658886.0698340165,5102492.918421468,3600464.5817395113,-226.7080928252009,-5260.543241354765,7318.12603604077,0.9947169976342292,-1.5147829120996958e-05,0.00014337781256919155,0.10265512082157018
0.51,-1.1646239687422674e-05,0.0005349415880076442,-0.0074278395551559,-49.098291827749364,54.708645605348735,5.066982261587679,-1658887.2025924893,5102466.615694774,3600501.172856524,-226.3952963106513,-5260.5474359660675,7318.32076897897,0.9947189046013133,-1.5259535052243153e-05,0.00014476843702821416,0.10263663886746144
0.515,-2.3886619947636786e-05,0.0005854898482043576,-0.007402112247701579,-49.08918354304357,54.694856218174905,5.066830325674298,-1658888.3337870375,5102440.312947091,3600537.7649469967,-226.08252302632548,-5260.55163771929,7318.515420025004,0.9947208101560828,-1.5428446694814762e-05,0.00014609545658848195,0.1026181673024175
0.52,-1.1071834675839885e-05,0.0005570287731891113,-0.00742179868475691,-49.07973862464575,54.673364248027916,5.074813531889773,-1658889.4634178986,5102414.010178409,3600574.3580106264,-225.76982139836383,-5260.55583513104,7318.710031879176,0.9947227087479142,-1.564075626242338e-05,0.00014754504039294627,0.10259975968314947
0.525,6.866312777953927e-06,0.0005659639328943873,-0.007410141490389171,-49.078919846316815,54.668239698344706,5.070131006668923,-1658890.5914854954,5102387.707388873,3600610.9520471967,-225.457217350807,-5260.559979140918,7318.904596309338,0.9947246120567267,-1.5813904942787954e-05,0.00014892713316731542,0.10258130306846444
0.53,6.825108505426251e-06,0.000560167110487017,-0.007395199351529424,-49.08003980631363,54.65316382187795,5.077563129179146,-1658891.7179901046,5102361.404578577,3600647.54705653,-225.14462628575427,-5260.564139409365,7319.099137035281,0.9947265120295196,-1.5944731936400447e-05,0.00015033604670559384,0.10256287540053048
0.535,1.3895062503355031e-07,0.000573749322055229,-0.007418732867055467,-49.08061538012568,54.644268505723005,5.064460516705208,-1658892.8429318531,5102335.101747625,3600684.1430384875,-224.83207312820144,-5260.568241387146,7319.293645914882,0.994728407830555,-1.6074169429189695e-05,0.00015173053459029926,0.1025444848558664
0.54,-1.2515112445005374e-05,0.0005582779410712807,-0.007403773498233233,-49.074868551617065,54.62073070281523,5.0638807336411595,-1658893.966310843,5102308.798896068,3600720.73999283,-224.5195227423732,-5260.572381262574,7319.488091045762,0.9947303093161635,-1.622372507348632e-05,0.00015315708393464725,0.10252603575418362
0.545,2.688535298345522e-05,0.0005766800380243537,-0.00739038576964119,-49.07238982857745,54.61147402511573,5.066516573281121,-1658895.088127265,5102282.4960238915,3600757.337919191,-224.2070461085683,-5260.576489192051,7319.682453398316,0.994732206629395,-1.6400777886126785e-05,0.00015454191577656982,0.10250762382391562
0.55,7.313254523581344e-06,0.0005581428107047834,-0.007380652857350601,-49.06742807789658,54.59285764604095,5.056677219890512,-1658896.2083813972,5102256.193131222,3600793.9368173173,-223.89460675429217,-5260.580578465546,7319.876797116927,0.9947341001640876,-1.6484559129007874e-05,0.00015598260813074266,0.1024892451354204
0.555,9.93831877929751e-07,0.0005629570904299823,-0.007382304167796499,-49.06527063382474,54.57819102904215,5.056813648888144,-1658897.327073456,5102229.890218072,3600830.5366869387,-223.58221680603563,-5260.584681865925,7320.071051452914,0.9947359908702839,-1.6612259489106258e-05,0.0001573721869781999,0.10247089062432438
0.56,1.6369245082192317e-06,0.000569128338886916,-0.007417734023302314,-49.06831934854786,54.56716092876102,5.052433077335299,-1658898.4442036713,5102203.587284459,3600867.137527712,-223.269869297563,-5260.58876336927,7320.265257921259,0.9947378816566517,-1.675690919489533e-05,0.00015877211915429044,0.10245253197387325
0.5650000000000001,-7.611992846527762e-06,0.0005986902701456966,-0.0074145258944955965,-49.052962111144446,54.54588836144102,5.055302528792365,-1658899.5597721657,5102177.284330454,3600903.7393393926,-222.9575285143673,-5260.592838400395,7320.459414254306,0.9947397811728481,-1.6901554336662588e-05,0.00016018756144418726,0.10243408517908988
0.5700000000000001,-5.85050665319249e-06,0.0005483637477730007,-0.0074110963787716614,-49.0460289651831,54.5391943960373,5.057003506376357,-1658900.6737792492,5102150.981356126,3600940.342121715,-222.64530481027796,-5260.5968928146285,7320.65351473897,0.994741679511204,-1.7076769226180305e-05,0.00016167415137587868,0.10241564632946513
0.5750000000000001,-2.401091583601896e-05,0.000553210749365138,-0.0074069800962221115,-49.05399596750272,54.52095761865309,5.060103080189081,-1658901.7862253424,5102124.678361526,3600976.9458745224,-222.3331324996475,-5260.600947237585,7320.847608168297,0.9947435766482067,-1.7234716606202297e-05,0.00016303603768401165,0.10239721597459835
0.58,-5.895070083901645e-06,0.0005638894069188196,-0.007392175061023558,-49.062117802948585,54.499505654157616,5.0663101321839115,-1658902.8971105926,5102098.37534681,3601013.55059764,-222.02096755779604,-5260.604939147753,7321.041638999126,0.9947454723855403,-1.743906547705403e-05,0.00016440532898413126,0.10237879582821333
0.585,3.3187817240471273e-07,0.0005738972989109232,-0.007397858677150533,-49.059193740272434,54.49834496125988,5.053388543118662,-1658904.0064350592,5102072.07231234,3601050.1562907444,-221.70881909521722,-5260.608848629745,7321.235602729539,0.9947473639876159,-1.7601089788330996e-05,0.00016580581393495938,0.10236041245678622
0.59,1.1890456722630181e-05,0.0005696333297434175,-0.007388441745959844,-49.0454668473578,54.47344867354277,5.054139669220039,-1658905.114198795,5102045.7692581685,3601086.7629535953,-221.39667523675266,-5260.612820179475,7321.429537536005,0.9947492566982539,-1.7750191878476552e-05,0.00016723278037160424,0.10234201491273942
0.595,-7.908205570108545e-07,0.0005560908136398844,-0.007381942905308919,-49.039806129908875,54.46337892323507,5.053754933782755,-1658906.2204020955,5102019.466184199,3601123.3705859254,-221.08464497667472,-5260.616767771931,7321.623394447723,0.9947511466599621,-1.7869454348915134e-05,0.00016865210053880857,0.10232364074759175
0.6,1.0595097988038762e-05,0.0005672547019392075,-0.007388373122139774,-49.04012966540258,54.443064424053304,5.054600325768582,-1658907.3250453675,5101993.163090496,3601159.9791874704,-220.7726638214837,-5260.620713216065,7321.817223648244,0.9947530346232882,-1.8016786562026552e-05,0.00017003449836880895,0.10230528271513586
0.605,-9.348537493252706e-06,0.0005632314365396908,-0.0073895596140250335,-49.029351587985666,54.436960427239235,5.046262422656291,-1658908.42812884,5101966.859977174,3601196.5887579843,-220.46072510643924,-5260.624615930701,7322.010981928127,0.9947549238859427,-1.8138661371663918e-05,0.00017144757122933104,0.10228690865106745
0.61,-3.961201368273486e-06,0.0005555327092735902,-0.007382282060364888,-49.034593180150125,54.4187315098361,5.055376372457807,-1658909.5296527552,5101940.556844215,3601233.199297216,-220.1488410193732,-5260.628567438954,7322.20471065695,0.9947568131113962,-1.830910543916558e-05,0.00017284553863748743,0.10226853160995035
0.615,-2.626624010470154e-06,0.0005928485075734266,-0.00737787568612758,-49.03097631485536,54.4050027837706,5.044146519611139,-1658910.629617318,5101914.2536917,3601269.810804982,-219.8369841597577,-5260.632438298966,7322.398395911932,0.994758700138654,-1.8464180288539013e-05,0.00017422573780337554,0.10225017263027955
0.62,-1.4832285606230134e-06,0.0005790679955780143,-0.007381017526442708,-49.029917829698036,54.39098314167586,5.04417651519855,-1658911.7280226783,5101887.950519762,3601306.4232809884,-219.52515994630238,-5260.636337195344,7322.592006521197,0.994760585682661,-1.862547312328273e-05,0.00017569907880243233,0.10223182457148483
0.625,5.387697295575435e-06,0.0005548074902649639,-0.007377262412945547,-49.0217567126333,54.37066739245706,5.044049971462593,-1658912.824869008,5101861.647328384,3601343.0367249316,-219.21337189574217,-5260.640213779652,7322.785570654696,0.9947624716950613,-1.878040180265802e-05,0.00017713844104806805,0.10221346866436809
0.63,4.647727863211761e-06,0.0005590662319612316,-0.0073728804913349155,-49.02320912942586,54.35204314262022,5.028482768418111,-1658913.9201565953,5101835.344117678,3601379.6511365287,-218.90166303296587,-5260.644068862965,7322.979068294991,0.9947643564184298,-1.891204208870015e-05,0.0001785192255617105,0.10219512205897156
0.635,1.1064217618294388e-05,0.0005374059884151519,-0.0073950809477674306,-49.01225958041966,54.344629693591315,5.042286452333067,-1658915.0138856715,5101809.040887637,3601416.266515337,-218.58996740557447,-5260.647947429538,7323.17245501697,0.9947662396802383,-1.904660870724598e-05,0.00017991041227943688,0.10217678631621334
0.64,-2.315512969446024e-05,0.0005713900681270386,-0.007363680273683418,-49.01382291912451,54.31743781385997,5.0302484774722975,-1658916.1060564846,5101782.737638307,3601452.8828611467,-218.27835791346922,-5260.651784852325,7323.365868884301,0.9947681282821659,-1.9159695100842103e-05,0.00018124936972161042,0.10215839532592817
0.645,-5.679395090855673e-06,0.0005641160517895018,-0.00737170519005644,-49.00368749533072,54.314488064465294,5.039136897121651,-1658917.1966693325,5101756.434369815,3601489.500173686,-217.96678121382922,-5260.655612027444,7323.559146845178,0.9947700085069682,-1.9366547447312665e-05,0.00018266410482020172,0.10214008240552931
0.65,2.6439010367570503e-06,0.0005660507972681981,-0.007389459899394423,-49.012597534857996,54.29726217884244,5.025972102997215,-1658918.2857244671,5101730.131082219,3601526.1184526924,-217.6552725906306,-5260.659425984059,7323.75245561107,0.9947718904456025,-1.9528085188615287e-05,0.0001840652119671122,0.10212174948527797
0.655,-4.096868841773948e-06,0.0005586548203185805,-0.007394202214668921,-48.98844156068518,54.276915388647566,5.028894900450014,-1658919.3732220093,5101703.827775549,3601562.7376979804,-217.34374431472702,-5260.663241820823,7323.945659564248,0.9947737765759458,-1.9669425589717474e-05,0.00018547325473414794,0.10210337237141584
0.66,1.1391626141814609e-05,0.0005420084568375252,-0.007403869344510699,-48.991906735129525,54.265000256666475,5.025416559181544,-1658920.4591622972,5101677.524449803,3601599.357909176,-217.03237082666288,-5260.667056923351,7324.138818861948,0.9947756635782263,-1.9825644150294933e-05,0.00018686118325613704,0.10208498343214623
0.665,8.402766969575976e-06,0.0005610801204941635,-0.0073867442513394265,-48.98816431689034,54.242651752290705,5.031622117300227,-1658921.5435457365,5101651.221105013,3601635.97908604,-216.721004885922,-5260.670859096598,7324.331926588812,0.9947775527139657,-1.993909991604512e-05,0.00018821166559838425,0.1020665704097796
0.67,1.7287247899216253e-05,0.0005538520781272153,-0.007392120643910644,-48.98937913202532,54.22778458894784,5.029291681245044,-1658922.6263725238,5101624.917741362,3601672.6012282902,-216.4097101092409,-5260.674601093386,7324.524973546326,0.9947794371289097,-2.0064847190372803e-05,0.0001896088162303176,0.10204819994193207
0.675,-7.962013343922197e-06,0.0005642807335765858,-0.007379092993118857,-48.97795735603759,54.21653063427521,5.028983604935955,-1658923.7076428987,5101598.614359051,3601709.224335629,-216.09843977308896,-5260.678323470415,7324.717962052047,0.9947813225779284,-2.0166657737212026e-05,0.00019099025737090664,0.10202981606439906
0.68,-9.461664856813875e-06,0.0005385679600083297,-0.007353205566784871,-48.979856130867425,54.207817634716704,5.022784697788218,-1658924.7873571145,5101572.310958111,3601745.8484078418,-215.78724654359868,-5260.682052490002,7324.910923052652,0.9947832043565872,-2.0333915874974744e-05,0.00019239119423826993,0.10201146456257194
0.685,3.032396205503972e-07,0.00054874654963446,-0.007354768854596808,-48.97170273915078,54.180543170975426,5.018363313346561,-1658925.8655153771,5101546.007538505,3601782.4734447477,-215.47605856319095,-5260.6857898288135,7325.103839167283,0.9947850792062514,-2.0498333630640495e-05,0.00019372780331368267,0.10199317740892669
0.6900000000000001,2.7740785708882756e-06,0.000543865870110465,-0.007356544369667733,-48.97142994422304,54.16041940940683,5.030491449175126,-1658926.9421179155,5101519.704100264,3601819.0994459665,-215.164956730918,-5260.68950661297,7325.296648419959,0.9947869541120156,-2.0641062550034882e-05,0.00019509221589994737,0.10197488632752913
0.6950000000000001,6.421795898449754e-06,0.0005565415043554603,-0.007363017724577367,-48.95574106695775,54.144937146366026,5.020541422970024,-1658928.0171650923,5101493.400643653,3601855.7264111363,-214.85391401811563,-5260.693137779474,7325.489419504623,0.9947888291346793,-2.0776403165649563e-05,0.00019644512014626388,0.10195659079485614
0.7000000000000001,-3.915945021100418e-06,0.0005808907406997892,-0.007356719469418922,-48.95693724043877,54.12452651616244,5.018298097528464,-1658929.0906572843,5101467.097168777,3601892.354339991,-214.54296276939758,-5260.696812644407,7325.6821224683845,0.994790705462652,-2.0905906093350172e-05,0.0001978304777098995,0.1019382791259711
0.705,5.175012416420275e-06,0.0005604203718299839,-0.007357576058317157,-48.95255737476812,54.11525165693062,5.016776055198778,-1658930.1625948066,5101440.793675608,3601928.983232159,-214.23204614481327,-5260.70045485092,7325.874744693601,0.9947925798341621,-2.1067320918542188e-05,0.00019927375699153635,0.10191998308982336
0.71,2.428168951281439e-06,0.0005347296522802158,-0.00735121786678221,-48.944581541555564,54.08701789820781,5.020246518363,-1658931.2329778466,5101414.490164225,3601965.613087366,-213.92116989019175,-5260.704098494713,7326.067338080321,0.9947944540960465,-2.1200911271676462e-05,0.00020066844310816687,0.10190168488521727
0.715,2.6991903607274942e-05,0.0005737246828567144,-0.007363350816518286,-48.93983171448737,54.07907094524576,5.0188798354577955,-1658932.3018067484,5101388.186634759,3602002.243905318,-213.61039083452047,-5260.707687862222,7326.259842641461,0.9947963264127471,-2.1334784970479916e-05,0.00020199853726032054,0.10188340246144663
0.72,8.8745752100302e-06,0.0005773990587355767,-0.007366502118287923,-48.93338112751188,54.05953373703765,5.003123515171106,-1658933.3690818544,5101361.883087334,3602038.8756857356,-213.2996515738657,-5260.7112818793685,7326.452324458426,0.9947982014629665,-2.1417507372610802e-05,0.00020343186757168088,0.10186508981399262
0.725,2.3872573651190223e-06,0.0005537269019480473,-0.007337158761884948,-48.94023458289838,54.052576783305945,5.008515708937594,-1658934.434803389,5101335.579521844,3602075.508428291,-212.9889622810614,-5260.714914152525,7326.6446977296,0.9948000769735541,-2.1546224810955384e-05,0.00020486972199299923,0.10184676930353789
0.73,1.1538648693232865e-05,0.0005490591435786057,-0.007370820260048136,-48.91994611351646,54.024742964197635,5.012686308093969,-1658935.498971464,5101309.275938302,3602112.1421326892,-212.6782676944274,-5260.718502842221,7326.837061490041,0.994801944686558,-2.168503384206285e-05,0.00020624705348590562,0.10182852174000535
0.735,-2.9482827635453396e-05,0.000560380997174697,-0.007349839135033058,-48.9201026107357,54.0165150056334,5.001750720548924,-1658936.5615864473,5101282.972336893,3602148.7767987186,-212.36772561119028,-5260.722060665209,7327.029350287264,0.9948038206335734,-2.1799912390205674e-05,0.00020761510402769807,0.10181019042108515
0.74,9.867290977784338e-06,0.0005549594147050757,-0.007374342254632769,-48.90668523848527,53.98720904033132,5.006368240174279,-1658937.6226487353,5101256.668717616,3602185.4124260554,-212.05718958390815,-5260.725650123196,7327.221584357158,0.9948056908934977,-2.2019682544548916e-05,0.00020900087218950433,0.10179191126842978
0.745,4.324299362470217e-06,0.0005450931751509965,-0.007365941744472409,-48.901516189828094,53.96416570410147,4.999569432209257,-1658938.6821586555,5101230.365080517,3602222.0490143485,-211.74677849549207,-5260.729189504376,7327.413732963887,0.9948075670550389,-2.2140221506358592e-05,0.0002103831691879473,0.10177357112122473
0.75,8.29421182770332e-07,0.0005660080608049807,-0.007338704823539991,-48.90602063662402,53.9500223616795,5.007081821494019,-1658939.7401166754,5101204.061425741,3602258.686563138,-211.43642943307793,-5260.732721200643,7327.605782737611,0.9948094407444753,-2.227203126128279e-05,0.00021173951872999742,0.10175525183496488
0.755,1.3109351502725592e-05,0.0005723248186807651,-0.007366741762203613,-48.89754268627425,53.93987510364137,5.000563946539035,-1658940.7965230022,5101177.757753464,3602295.325072099,-211.12610128723693,-5260.736189338217,7327.797801694523,0.9948113071558752,-2.2417838933913182e-05,0.00021314699647538446,0.10173700025368078
0.76,9.622804627773312e-06,0.0005468386811999765,-0.007333997994871834,-48.88226258826999,53.908395744704386,4.995019004168383,-1658941.8513778227,5101151.454063779,3602331.9645410473,-210.8158269930334,-5260.7396849791985,7327.98977768005,0.9948131803574286,-2.2534727625118318e-05,0.00021457330584057055,0.10171867890225793
0.765,2.3303197621751637e-06,0.0005645578125994347,-0.007345007447544176,-48.89164614611097,53.90355960617596,4.99881479737908,-1658942.9046815825,5101125.150356642,3602368.6049695727,-210.50567688843898,-5260.743169381928,7328.181632560407,0.9948150449079519,-2.265378886016231e-05,0.0002159353454965111,0.1017004389544222
0.77,1.6983721854190733e-06,0.0005278485924915014,-0.007338311728017576,-48.88067739966822,53.88596385751575,4.997903787010998,-1658943.9564345353,5101098.846632179,3602405.246357354,-210.19550419999726,-5260.746616134672,7328.373479887734,0.9948169119108099,-2.2795497823608787e-05,0.00021733959847978454,0.10168217159416029
0.775,1.9220801847820193e-05,0.0005367236951942109,-0.007332113724969951,-48.86972624879469,53.863853310695276,4.994011578651016,-1658945.0066368387,5101072.5428904975,3602441.8887042333,-209.88541718267794,-5260.750056334223,7328.565271769396,0.9948187768945036,-2.2929443138519352e-05,0.00021865239374405085,0.10166392085442733
0.78,-5.600614127918924e-06,0.000562757071398361,-0.007329362662468694,-48.876727998345515,53.846695523716704,4.994352499837812,-1658946.0552889318,5101046.239131629,3602478.532009866,-209.57542007085152,-5260.753491370783,7328.756981487204,0.9948206399627632,-2.3022061646892307e-05,0.00021999171558398614,0.10164568548496378
0.785,2.3224663903590747e-05,0.0005427170874794572,-0.007343138068411032,-48.866421883035365,53.828553778052694,4.989143549552897,-1658947.1023910542,5101019.935355702,3602515.1762738847,-209.2654288818615,-5260.7568790190535,7328.948625961363,0.9948225019801772,-2.318302622769969e-05,0.000221389476383286,0.10162745693535523
0.79,-1.0929969427402727e-05,0.0005569584715411419,-0.007335225082623851,-48.85291982424472,53.805677364661726,4.991428430477814,-1658948.147943416,5100993.631562819,3602551.82149595,-208.95551583758723,-5260.76027442385,7329.14020016314,0.9948243671737129,-2.326721680545336e-05,0.00022274471934120513,0.10160919407636498
0.795,-1.2535665697929704e-05,0.0005534642138103845,-0.0073104723385158535,-48.84413346942938,53.779393081288404,4.98476802451446,-1658949.1919464893,5100967.327753023,3602588.4676757217,-208.6457134427742,-5260.763643754773,7329.331708518107,0.9948262300104639,-2.3439965261505698e-05,0.00022412670581179806,0.10159095088124474
0.8,9.167259331132361e-06,0.0005660070675906808,-0.0073498435817639,-48.83861204370595,53.7738732742816,4.98909681351665,-1658950.2344007608,5100941.0239264015,3602625.114812764,-208.33599522626258,-5260.767004790211,7329.523108204555,0.9948280862271065,-2.361580584978355e-05,0.00022549959539871237,0.10157276921468252
0.805,2.036330999668003e-05,0.0005559045940968855,-0.007329457090985237,-48.82631057879881,53.750011495641026,4.980458245099223,-1658951.2753065566,5100914.720083002,3602661.762906813,-208.02632309978543,-5260.770355081098,7329.714511479454,0.9948299520995401,-2.3740876958135053e-05,0.0002269091886085385,0.1015544895817889
0.81,2.4274576084558415e-05,0.0005573921377815919,-0.007322252064780421,-48.82196444293569,53.724320830325425,4.985830682852789,-1658952.3146642244,5100888.41622282,3602698.411957625,-207.71674400261315,-5260.7737176166065,7329.905813357569,0.9948318124656114,-2.3835526198528412e-05,0.00022829649986647572,0.10153626061148044
0.8150000000000001,5.768052102678747e-07,0.0005424304361428502,-0.00733413260865793,-48.82413374787401,53.708918148782274,4.978170000938981,-1658953.3524741933,5100862.112345985,3602735.061964756,-207.40724353711843,-5260.7770166245045,7330.09703891186,0.9948336706665161,-2.392082128790065e-05,0.00022968850395451533,0.1015180495240693
0.8200000000000001,1.3175560444989828e-05,0.0005074322182263354,-0.0073271218675444415,-48.81566845782814,53.69951337459586,4.978248068830611,-1658954.388736695,5100835.808452659,3602771.712927823,-207.09775718056923,-5260.780313666466,7330.288188008541,0.9948355315540303,-2.4061264335303594e-05,0.0002310372818644538,0.10149980886898234
0.8250000000000001,1.1819157609233121e-06,0.0005356753820523868,-0.0073295286758527185,-48.81056662614174,53.67592677391657,4.973026434137017,-1658955.4234519172,5100809.504542841,3602808.3648465816,-206.78833168143973,-5260.783613864722,7330.479315514715,0.9948373903477006,-2.4161488320762977e-05,0.00023230221336942829,0.1014815856107945
0.8300000000000001,7.832488196008126e-06,0.0005464142421739541,-0.007327632965198704,-48.79446111941954,53.65012141031257,4.966602748112508,-1658956.4566201733,5100783.200616559,3602845.017720736,-206.4789707648236,-5260.786898702637,7330.670346195872,0.9948392493992484,-2.4298708413884845e-05,0.0002336343452039445,0.10146335633767357
0.835,-8.012316624813362e-06,0.0005900372259758199,-0.007318567782552263,-48.79618403918522,53.635314991066714,4.973277844264144,-1658957.4882419158,5100756.896673836,3602881.671549794,-206.16972622062082,-5260.7901903964,7330.861276888236,0.994841107628301,-2.442211076733384e-05,0.00023499487264712725,0.10144513174058975
0.84,1.585897024508208e-05,0.0005745496450252214,-0.007325870307041795,-48.792966777090726,53.608397712277984,4.971691981319083,-1658958.518317519,5100730.592714795,3602918.326333421,-205.8605150758653,-5260.793425927413,7331.052173984561,0.994842963196256,-2.4595978793032404e-05,0.00023645987696256909,0.10142692966198516
0.845,1.8878413013793058e-06,0.000550851504323815,-0.0073041207437382115,-48.78726134186181,53.590367770238956,4.974192119483384,-1658959.5468472335,5100704.28873968,3602954.982071279,-205.55137074715066,-5260.796620191684,7331.242969350157,0.9948448202910413,-2.470655352866744e-05,0.00023789241445024397,0.10140870937385614
0.85,-4.18341038876538e-06,0.0005458983488009158,-0.0072917918237556745,-48.77175534839618,53.566859114942915,4.967204732498997,-1658960.5738313945,5100677.984748673,3602991.638762984,-205.24229358266953,-5260.799782556902,7331.433712581224,0.9948466715503904,-2.4845855089240768e-05,0.00023926247128459624,0.10139054315498558
0.855,1.3253882700488268e-05,0.0005450796134345115,-0.007330926531967904,-48.77066370402782,53.55591878413432,4.972990592924049,-1658961.5992704413,5100651.680741821,3603028.296408173,-204.93332519637354,-5260.802957971951,7331.624363030897,0.9948485193542047,-2.4998993670401854e-05,0.00024061867081017662,0.10137240756957576
0.86,-1.7213052193510242e-09,0.0005529288755977487,-0.007299403251718047,-48.75085326108846,53.5364713080422,4.96113502202655,-1658962.623164741,5100625.376719189,3603064.955006569,-204.62439465298453,-5260.806095329968,7331.814995384148,0.9948503767433184,-2.5108579628582674e-05,0.00024197725066588336,0.10135417460690407
0.865,-8.188097481703358e-06,0.0005649954905263364,-0.007297603022690339,-48.75260070120127,53.51452906639918,4.961849167276058,-1658963.6455146743,5100599.0726807425,3603101.614557911,-204.31557861828546,-5260.809283079977,7332.005541448986,0.9948522258047099,-2.5253103753795913e-05,0.00024335199574551642,0.10133602002003787
0.87,6.130270986125343e-06,0.0005734472876958116,-0.007313771942945408,-48.74649141563165,53.48794868854783,4.954358590623541,-1658964.6663206234,5100572.76862648,3603138.2750617852,-204.0068010551113,-5260.812421702587,7332.196008208858,0.994854074069018,-2.5421044318572063e-05,0.00024475467816715337,0.10131786988085957
0.875,-7.548655780890385e-06,0.0005484838413729702,-0.007303825056571844,-48.74165903168265,53.47114622634768,4.956501890082489,-1658965.6855828636,5100546.464556553,3603174.936517707,-203.69809502112318,-5260.815549009638,7332.386360443575,0.9948559260906855,-2.555552384556692e-05,0.0002461820070076719,0.10129967948408942
0.88,-7.576159623816103e-06,0.0005574834372476224,-0.007286785410364322,-48.73182195082699,53.45775738709113,4.950010927110423,-1658966.703301725,5100520.160471064,3603211.5989252673,-203.38944952098544,-5260.81864682328,7332.57666375849,0.9948577752736953,-2.5717696672727656e-05,0.00024754378464249526,0.10128151380261011
0.885,-8.341581363977138e-06,0.000544664782860687,-0.007287212278152918,-48.714049119944086,53.429048958472734,4.948194226830158,-1658967.7194775231,5100493.856370029,3603248.262284207,-203.08086972346499,-5260.821767291132,7332.766912001149,0.994859619803805,-2.5882206083904523e-05,0.00024892793962080225,0.10126339046674719
0.89,5.230147774050491e-06,0.0005611591912715218,-0.007314957201474213,-48.717772203352666,53.4244822038974,4.953637157298274,-1658968.7341107593,5100467.552253428,3603284.9265941437,-202.77242483340098,-5260.824873105392,7332.957062640697,0.9948614641178475,-2.6045374319031675e-05,0.0002502800188113286,0.10124526603670693
0.895,-2.940128361527338e-06,0.0005524919141033385,-0.007270394164059597,-48.71094247686653,53.395563222529404,4.9427013740308,-1658969.7472017822,5100441.248121378,3603321.5918548405,-202.4639842284379,-5260.827946935609,7333.14721606161,0.9948633151117062,-2.617897988154927e-05,0.00025167655542299356,0.1012270725572886
0.9,-1.7179247576418425e-05,0.0005525341332390099,-0.007303322199638096,-48.7025066581884,53.37039125040288,4.950154664903168,-1658970.7587507882,5100414.943973962,3603358.2580659715,-202.15561816647218,-5260.831019128995,7333.337236437093,0.9948651545004007,-2.633068475890488e-05,0.0002530494703439738,0.1012089898850621
0.905,-1.1176437559429928e-05,0.0005380643430284584,-0.007285923357000249,-48.68217754899506,53.35396436838904,4.939825173171014,-1658971.7687582101,5100388.639811343,3603394.925227042,-201.84735063672645,-5260.8340290593305,7333.527191672951,0.994867001887603,-2.6517836149756368e-05,0.0002544188852016338,0.10119082529067189
0.91,1.3680489237154526e-05,0.0005431431332724344,-0.00729095861534439,-48.681650013494014,53.32636279437082,4.9408014237406235,-1658972.7772245777,5100362.335633541,3603431.5933377147,-201.53919637976946,-5260.837091309303,7333.71707748464,0.9948688445501829,-2.6686385946212674e-05,0.0002557538309088966,0.10117270393341739
0.915,3.2433862616127904e-06,0.0005481183517985965,-0.007305281304072652,-48.68028667772479,53.30964382337467,4.933256672446962,-1658973.7841503217,5100336.031440576,3603468.2623975673,-201.23110126115952,-5260.840095062301,7333.906863584625,0.9948706881526272,-2.679440008548022e-05,0.00025710769512653925,0.10115457000260164
0.92,-4.006609561375101e-06,0.0005564627517337988,-0.00725657480772228,-48.67536694560095,53.2932150152858,4.9466614446361366,-1658974.789535671,5100309.727232587,3603504.932406154,-200.92303847467107,-5260.843100546596,7334.096571051717,0.9948725350401525,-2.6929640506735072e-05,0.00025847129314473236,0.10113640042124157
0.925,-1.6184537115157882e-05,0.0005306761065621943,-0.007265849837697741,-48.65297864929149,53.26853989838253,4.936590665752378,-1658975.793380893,5100283.423009752,3603541.6033632383,-200.6150503296013,-5260.8460331736205,7334.286262621194,0.9948743692752723,-2.708499130667826e-05,0.00025985381529550574,0.10111835195219109
0.93,8.378367755951783e-06,0.0005251201417030064,-0.00729437374429122,-48.6548585187698,53.2558207982117,4.937453697161838,-1658976.7956865185,5100257.118772163,3603578.275268529,-200.30719985003583,-5260.849002314011,7334.475853645454,0.9948762055413259,-2.726411813535595e-05,0.00026116912202134844,0.10110028039056514
0.935,2.997957859810121e-06,0.0005293120386929189,-0.007271070394448484,-48.641941679622654,53.22999114271407,4.934800043693575,-1658977.7964529449,5100230.814519801,3603614.9481216706,-199.99937068899837,-5260.851942580072,7334.665403022489,0.9948780486908309,-2.738076668086564e-05,0.0002624768162643565,0.10108213783522453
0.9400000000000001,5.846498402783173e-06,0.0005637516760321912,-0.0072834132445312475,-48.633219880738544,53.19701640481119,4.936070852260237,-1658978.7956804924,5100204.510252775,3603651.621922328,-199.69164833693048,-5260.854868103068,7334.854860043539,0.9948798856168164,-2.7511841369797734e-05,0.0002637935784224665,0.1010640532094224
0.9450000000000001,4.139879663976037e-06,0.0005338284250429293,-0.007275409128340033,-48.632431916894845,53.1866348679716,4.9255157309572875,-1658979.793369693,5100178.205971258,3603688.296669986,-199.38403187616174,-5260.857738393676,7335.044203145185,0.9948817253076777,-2.764454082361435e-05,0.0002651967176126037,0.1010459378465998
0.9500000000000001,2.785637244598675e-05,0.0005401283440153198,-0.007260485159212058,-48.61054442333575,53.157122166297505,4.938850558327643,-1658980.7895208474,5100151.901675323,3603724.972364205,-199.07642984939156,-5260.860635599643,7335.23348443328,0.9948835626649357,-2.7773920613651992e-05,0.0002665250009114356,0.10102784236119353
0.9550000000000001,1.7488002189298394e-05,0.0005475890322794783,-0.007255917172159171,-48.6020069329167,53.13891418697713,4.919587709762824,-1658981.7841344269,5100125.597365072,3603761.6490046927,-198.76900197961987,-5260.8634649507585,7335.422710547848,0.9948853959200511,-2.7845893746412007e-05,0.0002678749444378521,0.10100978394504012
0.96,2.6443419868193755e-06,0.0005448061978038371,-0.007258943543640832,-48.59756974167216,53.11253539576853,4.914213907522347,-1658982.7772109972,5100099.293040526,3603798.3265910316,-198.46162619454572,-5260.866353432727,7335.611825126805,0.9948872276865018,-2.7945536167467826e-05,0.0002692408262509658,0.10099173686342439
0.965,-1.969737645242997e-06,0.000525562404289956,-0.007276291204762599,-48.599711114368795,53.09743253108804,4.921400898529763,-1658983.7687508543,5100072.988701594,3603835.0051226704,-198.15431664741104,-5260.869219148669,7335.800830410843,0.9948890598885227,-2.8081397427978555e-05,0.0002705960385297582,0.10097368223131478
0.97,2.6696118795668455e-05,0.0005308749504636834,-0.007291007842068377,-48.577071313917386,53.06385508117906,4.922359487638644,-1658984.758754245,5100046.684348484,3603871.684599251,-197.8470396306594,-5260.872024998072,7335.989801833021,0.994890896152172,-2.8223888866334128e-05,0.000271902221150253,0.10095558442266811
0.975,5.631429811004805e-06,0.0005032136747310398,-0.007241354337638386,-48.56783289862265,53.04242220663981,4.920432369508843,-1658985.7472216731,5100020.379981412,3603908.3650204246,-197.53993155477377,-5260.874803976358,7336.17866755759,0.9948927357969337,-2.8296432628004782e-05,0.00027322885109699825,0.10093744995688927
0.98,-1.5707466054076456e-05,0.0005274386292860727,-0.007260890688044882,-48.55336251858677,53.02646328316027,4.924090141136731,-1658986.7341537687,5099994.075600482,3603945.046385738,-197.23290676099057,-5260.877567824658,7336.367457724608,0.9948945625993867,-2.8414355081904177e-05,0.0002744813689199732,0.10091943897375596
0.985,-1.8377730395474934e-05,0.0005386735389244279,-0.007262994223814025,-48.55697630744587,53.00943189282017,4.90460848633941,-1658987.7195510007,5099967.771205768,3603981.728694918,-196.92598595541415,-5260.8803178063345,7336.5562144299265,0.9948963939841011,-2.859147773305407e-05,0.00027578875467992463,0.10090137937869106
0.99,1.2868621941927224e-05,0.0005391222632472539,-0.007262913540377494,-48.5458556890567,52.98335211485946,4.915423702594453,-1658988.7034136162,5099941.466797209,3604018.4119475884,-196.61906029154463,-5260.883105608386,7336.744853609503,0.9948982255618171,-2.8778077460664298e-05,0.00027712341054245306,0.10088331451922739
0.995,-1.357648192742274e-05,0.0005585899904809441,-0.007248559978906962,-48.52946591713655,52.965844791223766,4.908217646613353,-1658989.6857418946,5099915.162374892,3604055.096143311,-196.31225102255183,-5260.88582125396,7336.9334354886205,0.9949000567913052,-2.8887072943593744e-05,0.0002784670629954749,0.10086524980531969
1.0,-7.258999112091296e-06,0.0005387263852530993,-0.00726215533350536,-48.525473127259886,52.93706161698707,4.912760767841802,-1658990.66653638,5099888.857938924,3604091.781281772,-196.00554321644793,-5260.888566199897,7337.121948873753,0.994901884056659,-2.9066743055756372e-05,0.0002798524690202312,0.10084722077593573
1.0050000000000001,7.4561522707445646e-06,0.0005385086746089089,-0.007236970356430404,-48.52682454379469,52.92360474263717,4.898886114234555,-1658991.6457975297,5099862.553489401,3604128.4673625706,-195.6989166467068,-5260.891242846261,7337.31037051164,0.9949037144348059,-2.9225701507695346e-05,0.00028119006087025644,0.10082915789509674
1.01,3.258208844487479e-06,0.0005560293222527977,-0.007242154914960893,-48.5179531056677,52.894524645336354,4.899689882245892,-1658992.6235255618,5099836.249026424,3604165.1543852636,-195.3922961095614,-5260.89394802384,7337.4987067039265,0.9949055381371236,-2.9347986969692946e-05,0.0002825308222555134,0.10081115761219443
1.0150000000000001,-1.0402600240118934e-05,0.0005503852871583602,-0.007234791462169253,-48.50638627369359,52.86404456054467,4.906253640725683,-1658993.599720738,5099809.944550032,3604201.842349389,-195.08577439883618,-5260.896608929745,7337.686943515504,0.9949073628056467,-2.9485133168849672e-05,0.00028391410364189023,0.10079314440239526
1.02,-1.7902339082308658e-05,0.0005761340617895265,-0.00722217872020649,-48.48942937490969,52.83331668871332,4.8896151036131785,-1658994.5743836078,5099783.6400604965,3604238.531254482,-194.77937351725697,-5260.899205162196,7337.875093616169,0.9949091852939973,-2.965483003056365e-05,0.0002852799049575966,0.1007751494843921
1.025,-1.93920874772037e-05,0.000549175785034705,-0.00724318218601979,-48.48125391499487,52.82959400884276,4.889640821370985,-1658995.5475147623,5099757.335557886,3604275.221099955,-194.4730882824599,-5260.901838646824,7338.063095560137,0.9949110042589189,-2.9849658876314322e-05,0.0002867078618773607,0.10075718590805074
1.03,2.5489228133508397e-06,0.0005424954295544964,-0.007235623623675135,-48.468965998340394,52.80341709870779,4.89279569287239,-1658996.519114613,5099731.031042071,3604311.9118854394,-194.16685208614084,-5260.9044876642,7338.2510983235825,0.9949128282064207,-3.0041417584315795e-05,0.0002880683891628173,0.1007391700601987
1.035,5.192870529629444e-06,0.0005509011311428319,-0.00722257592661897,-48.45802070582689,52.779763286306334,4.893443986308858,-1658997.4891835628,5099704.72651311,3604348.6036107424,-193.860727802745,-5260.907096813598,7338.439022882257,0.9949146499290297,-3.017691492379597e-05,0.00028941782679056113,0.10072117296413827
1.04,7.897838871220473e-06,0.0005411280147760411,-0.00722405843433975,-48.4465047365509,52.7595274021955,4.881325238227932,-1658998.4577221365,5099678.42197117,3604385.2962754783,-193.55470164653283,-5260.909678982587,7338.6268713545705,0.9949164680334854,-3.0307943137289986e-05,0.00029078883845050135,0.10070320828580677
1.045,3.094080405245067e-05,0.0005498539043165,-0.007206408465244111,-48.441632685876506,52.73178344407208,4.882479611685218,-1658999.4247307747,5099652.117416239,3604421.9898792123,-193.24875362861445,-5260.912293472943,7338.814622378526,0.9949182861921857,-3.042978391427641e-05,0.000292136222314178,0.10068523988579388
1.05,-5.311114775777809e-06,0.0005303868334922403,-0.007230236870250275,-48.43392107613045,52.70275981986058,4.8782489526946575,-1659000.39020987,5099625.812848362,3604458.684421461,-192.94288448929711,-5260.914857128475,7339.002277065449,0.9949200995779647,-3.0496493542965425e-05,0.0002935111115088268,0.10066731533603257
1.055,3.1062748724616822e-06,0.0005603784040837509,-0.007217666293506633,-48.41758532671463,52.6841687533558,4.879286126007028,-1659001.3541598371,5099599.508267735,3604495.3799016974,-192.63710234561515,-5260.917393994632,7339.1898175086135,0.9949219186463026,-3.0648490808746586e-05,0.000294828454882185,0.10064933151299224
1.06,1.2636937224398664e-05,0.0005412107172467907,-0.007203282697968579,-48.4076685814914,52.659541315047555,4.874712010242145,-1659002.3165811775,5099573.2036744375,3604532.076319511,-192.3314338605579,-5260.919925007576,7339.377307940893,0.994923734203775,-3.078708876424642e-05,0.00029622251531099603,0.10063137891529053
1.065,-1.000403705727992e-05,0.0005599297775953142,-0.007229464520163703,-48.40418967935197,52.62955096981328,4.874170630613063,-1659003.277474397,5099546.899068512,3604568.773674538,-192.0258539014604,-5260.922445217875,7339.564702842885,0.9949255458323912,-3.0897148175498915e-05,0.00029757129849289,0.10061346205556705
1.07,1.7835314798527183e-06,0.0005426564253964705,-0.007210275153786426,-48.38869823799955,52.61127807019436,4.884538708015272,-1659004.2368399028,5099520.594450115,3604605.471966261,-191.72034839322362,-5260.924913217109,7339.751986350554,0.9949273637052314,-3.106825073692838e-05,0.00029896094476632634,0.10059548005589358
1.075,1.1724494890611628e-05,0.0005497915206996849,-0.007235170808569476,-48.38525778604151,52.58198769865447,4.873922883246678,-1659005.194678184,5099494.289819488,3604642.1711943434,-191.41496415701445,-5260.927337552661,7339.939246533898,0.9949291764399589,-3.120567545688689e-05,0.000300310592545624,0.10057754574585161
1.08,-1.246052253348429e-05,0.0005344337923675856,-0.007210570564548331,-48.37459083175658,52.5670036898484,4.874784385580733,-1659006.1509896945,5099467.985176767,3604678.8713583844,-191.10963999520436,-5260.929750918051,7340.126369955796,0.9949309951037132,-3.132018654727682e-05,0.00030168048516471886,0.10055954947127546
1.085,7.78383045622259e-06,0.0005563147520712557,-0.007211840296521187,-48.36132773305412,52.52875178525284,4.858472993364626,-1659007.105774788,5099441.680522,3604715.5724579417,-190.80439734746597,-5260.932155737503,7340.313452835268,0.9949328072664444,-3.149097421687708e-05,0.0003030060998251371,0.10054161437203182
1.09,-2.7929945018268457e-06,0.00054391833006422,-0.0071968251367500805,-48.347370514643316,52.516410185924016,4.858826717975737,-1659008.0590339503,5099415.375855182,3604752.2744924603,-190.4992676108046,-5260.934571588602,7340.500354737531,0.9949346194081331,-3.161690827817323e-05,0.00030439122799803445,0.10052367606462115
1.095,-2.7757693776866955e-06,0.0005379223909839385,-0.007208889094179488,-48.33873323356602,52.49788431590077,4.860002686415264,-1659009.010767691,5099389.071176269,3604788.9774614177,-190.19422871856037,-5260.936993665197,7340.687228095859,0.9949364274603419,-3.176602369147742e-05,0.00030574286513160466,0.1005057750811956
1.1,1.4473307896453938e-05,0.0005400635851756385,-0.007201265342667315,-48.331887529711274,52.45882914859654,4.86191628679336,-1659009.9609764353,5099362.766485301,3604825.681364602,-189.88926895740065,-5260.93939363196,7340.8740456528285,0.9949382382239437,-3.191359890456026e-05,0.0003070795915899577,0.10048784405828276
1.105,-1.3740000523602033e-05,0.0005173366832518757,-0.007195409456234706,-48.31635769220016,52.432717024676066,4.852752991764445,-1659010.909660653,5099336.4617825225,3604862.3862015274,-189.58441813933658,-5260.941717782301,7341.06072461655,0.9949400467474199,-3.2018801748088266e-05,0.0003084259777527786,0.10046993195207521
1.11,-5.361815961151403e-06,0.0005353333543705539,-0.007185688932920945,-48.307909898362446,52.42131711445241,4.8560694334806325,-1659011.8568208928,5099310.157068085,3604899.0919715734,-189.27967772825272,-5260.944057243879,7341.247293759076,0.9949418534913583,-3.21884680161791e-05,0.00030970874804883014,0.10045203440236802
1.115,2.065280235964223e-05,0.0005585753177201283,-0.007179061464991576,-48.288948395623414,52.38809227397363,4.845928686504368,-1659012.8024576008,5099283.852341986,3604935.7986744125,-188.97500550585485,-5260.946382157477,7341.433841830906,0.9949436574576813,-3.2341806736856186e-05,0.0003110383871439914,0.10043416099047912
1.12,7.463437129630945e-07,0.0005436845951142248,-0.007187479543027215,-48.28659444435004,52.36589508614334,4.855309181089645,-1659013.746571291,5099257.547604239,3604972.5063096453,-188.6704705790348,-5260.948716924285,7341.620251250095,0.9949454594213263,-3.243626831253228e-05,0.0003124323696751083,0.1004163040088056
1.125,-2.2124429008050168e-05,0.0005227100435427358,-0.007188327614939836,-48.263703188444616,52.34501923242275,4.847497026264969,-1659014.6891624767,5099231.242855007,3605009.2148767924,-188.3660037000811,-5260.950975866507,7341.806607687499,0.9949472631855121,-3.257651287617015e-05,0.00031378431544762955,0.10039842607249215
1.1300000000000001,7.87630091530178e-06,0.0005312484850518606,-0.0072029903912442655,-48.262356655291896,52.32426492816816,4.843289965853393,-1659015.6302316673,5099204.938094388,3605045.924375525,-188.06167254030382,-5260.953271869842,7341.992885387024,0.9949490668541009,-3.276838159640955e-05,0.0003150783491435357,0.10038054601376256
1.135,-3.0233671525793574e-06,0.0005228290882290888,-0.007175354231154189,-48.24075679990504,52.2832941445513,4.83901500860693,-1659016.5697793106,5099178.63332234,3605082.6348054316,-187.7573848380498,-5260.955546929101,7342.179077086786,0.9949508738743614,-3.288778159374612e-05,0.0003164011485458974,0.10036262942625448
1.1400000000000001,2.841925117050426e-06,0.0005274479614336796,-0.00717275758944131,-48.24175010138713,52.27392097406284,4.84345132734392,-1659017.507805942,5099152.328538982,3605119.3461659173,-187.4532676990671,-5260.957796316405,7342.365117255219,0.9949526736431673,-3.303215882378282e-05,0.00031770027310380164,0.10034478155702026
1.145,-2.1836395304387527e-06,0.0005307496644059802,-0.007178580490087114,-48.22689084596998,52.2491400498617,4.843216700341498,-1659018.4443120467,5099126.023744462,3605156.05845656,-187.14917415833844,-5260.960012004002,7342.551139878589,0.9949544724356297,-3.316310345974608e-05,0.00031901235805268416,0.10032694010913427
1.1500000000000001,1.0057152733437546e-05,0.0005175379314113285,-0.007176968801368602,-48.21267103865483,52.21875687338606,4.826774612082178,-1659019.3792979745,5099099.718938908,3605192.771677116,-186.84519700898986,-5260.9622094480255,7342.73708240608,0.9949562723635956,-3.3307381373369826e-05,0.00032033139452712053,0.10030908414871789
1.155,1.2270827222584343e-05,0.0005314882481925325,-0.007175898919006087,-48.20337687371985,52.1884082946082,4.83519245609611,-1659020.3127642737,5099073.414122288,3605229.4858270125,-186.54132263333818,-5260.964438346186,7342.922876230295,0.994958071576906,-3.3417897210832426e-05,0.00032162063794718705,0.10029123215602628
1.16,-1.2497733321796355e-06,0.0005305496685088589,-0.007159383482413799,-48.19025710946661,52.16684413647848,4.830099546851069,-1659021.2447114822,5099047.109294716,3605266.2009056704,-186.2375607768855,-5260.96659071169,7343.1085869370345,0.9949598701889634,-3.3526403630133776e-05,0.0003229451363336191,0.10027338278915493
1.165,-1.6906101543044903e-06,0.0005121308133698075,-0.007166238780790818,-48.1802320401282,52.139164030616605,4.8201435687365075,-1659022.1751401229,5099020.80445637,3605302.9169126768,-185.93389548279347,-5260.9687477808,7343.294215586342,0.9949616643392684,-3.3668292555693704e-05,0.0003242639119863562,0.10025557448139588
1.17,8.763061655861186e-06,0.0005480171459788061,-0.007150990291615128,-48.17149945763904,52.11384539603441,4.829223737837178,-1659023.1040506556,5098994.49960723,3605339.6338475184,-185.63031758060058,-5260.970908325077,7343.479721148472,0.9949634599019355,-3.380666708480191e-05,0.00032553676132976715,0.10023774909132835
1.175,1.2418866108609796e-05,0.0005120368147781156,-0.007167995612170545,-48.16025115766424,52.09173508152329,4.824823481663827,-1659024.031443553,5098968.194747458,3605376.3517097346,-185.3268414618589,-5260.973000122369,7343.665165374141,0.994965251294672,-3.3928019552489576e-05,0.0003269014954625572,0.10021996158666299
1.18,3.458503094637912e-06,0.0005579283747962533,-0.00714798196560842,-48.13992867331422,52.058360624460946,4.820222414650306,-1659024.9573192953,5098941.889877236,3605413.0704989624,-185.02345534868155,-5260.975088754325,7343.850525681039,0.9949670466573032,-3.40312775422908e-05,0.0003281776460609418,0.10020213175052095
1.185,-9.000578145788849e-06,0.0005422929193351537,-0.0071530402777256145,-48.138013221000705,52.03592877330117,4.818209439435975,-1659025.8816784832,5098915.584996595,3605449.790214685,-184.72021990682322,-5260.977167747028,7344.035763229293,0.994968836647593,-3.4168303346341436e-05,0.0003295657051124909,0.1001843516678556
1.19,7.097405938274771e-07,0.000515333251855373,-0.007146515053169408,-48.11613843127721,52.00684983543156,4.814437891839247,-1659026.8045216238,5098889.280105639,3605486.510856379,-184.41703622643027,-5260.979214307218,7344.2209145217375,0.994970627596774,-3.4332408230978734e-05,0.0003309117511362701,0.10016655898242921
1.195,2.263201575799041e-06,0.000564217027943866,-0.007158522977975431,-48.10870764874409,51.98106863176688,4.817950972484494,-1659027.725849223,5098862.975204451,3605523.2324235756,-184.11400351715488,-5260.981260972569,7344.405964079314,0.9949724166154391,-3.446560285879934e-05,0.00033219316904366475,0.10014878249012255
1.2,-2.5110774939472176e-05,0.0005227252276526379,-0.007159488887929885,-48.095578160801786,51.96234594577995,4.805910830667345,-1659028.6456618828,5098836.670293156,3605559.95491582,-183.81106038779072,-5260.983257049795,7344.590933735012,0.9949742082801395,-3.4607182447492284e-05,0.0003335965697747149,0.10013097609122441
1.205,-3.6107903525662385e-06,0.0005502755887580517,-0.007161231097570839,-48.081748305080914,51.93132023122918,4.805124508929121,-1659029.5639600332,5098810.365371784,3605596.678332688,-183.50819979705824,-5260.985291678656,7344.775813407257,0.9949759998983164,-3.480646729591323e-05,0.00033488990967939924,0.10011316728384764
1.21,5.676497211355388e-06,0.0005361601282226776,-0.007157784414600153,-48.063136117227316,51.89951274504726,4.798542360244717,-1659030.480744186,5098784.060440321,3605633.402673684,-183.20546137768855,-5260.987293732566,7344.960585118518,0.9949777916107184,-3.495916905478616e-05,0.00033625716027366865,0.10009535409017037
1.215,2.355701433696901e-05,0.0005436042624172017,-0.007124628511748618,-48.056544757138425,51.87346795961123,4.801644425771849,-1659031.396014991,5098757.755498852,3605670.1279382305,-182.90286056186676,-5260.989293990017,7345.14523345284,0.9949795821527132,-3.508523406289283e-05,0.00033759162367229056,0.1000775494311002
1.22,9.772321030101283e-06,0.0005506117441820838,-0.007126982649494695,-48.04683724379454,51.85174014131345,4.806361121150752,-1659032.3097730062,5098731.45054751,3605706.8541258117,-182.60034549605462,-5260.99124292236,7345.329798984978,0.9949813640756436,-3.5168656680084414e-05,0.0003389490803705658,0.10005982719782175
1.225,-2.485461195699074e-06,0.0005418370431079241,-0.007118235664158604,-48.03318136262033,51.829834042227056,4.798089912751141,-1659033.222018681,5098705.145586526,3605743.581236075,-182.2979244718085,-5260.993150397913,7345.514306305787,0.9949831462626831,-3.5288122981760224e-05,0.0003403205193029798,0.10004209908785795
1.23,8.618866557905393e-07,0.0005150453953844329,-0.007137608908448024,-48.01872307051754,51.80280861830487,4.795968555686212,-1659034.1327524893,5098678.840615962,3605780.309268645,-181.99559884373448,-5260.995075276911,7345.698721615176,0.9949849259511022,-3.543587794818089e-05,0.00034166706646365905,0.10002439271494745
1.235,1.868556813250539e-05,0.0005279104104008624,-0.0071193408857476775,-47.99987949235076,51.76996705510237,4.795423738474662,-1659035.0419749597,5098652.535635816,3605817.038223054,-181.69338926926784,-5260.996983205504,7345.883041946178,0.9949867101895036,-3.556862350390856e-05,0.0003429478056260103,0.10000663811939915
1.24,-1.3523271936614451e-05,0.0005217420035394456,-0.007129192802379459,-47.99311592141098,51.743399121165616,4.78938300143176,-1659035.9496867526,5098626.230646199,3605853.768098788,-181.39132787746416,-5260.99886361065,7346.067251690445,0.9949884895334555,-3.566023403759417e-05,0.00034426500381685716,0.09998892891659313
1.245,-2.462200898307794e-05,0.0005008027291491324,-0.007111100334688372,-47.98628892900269,51.72359480095959,4.784481280293831,-1659036.8558884277,5098599.925647221,3605890.4988952945,-181.08934214635744,-5261.000727797367,7346.251351014087,0.9949902710252067,-3.583042967091486e-05,0.00034555880596648516,0.09997119520380805
1.25,-9.150995307453086e-06,0.0005401718788373993,-0.0071170688944283906,-47.96613462580972,51.690078232328204,4.7797491108566685,-1659037.7605803371,5098573.620638933,3605927.2306120987,-180.78742168273263,-5261.002586999392,7346.43537061399,0.9949920476953439,-3.602298419052862e-05,0.00034679774980594024,0.09995350647522028
1.2550000000000001,2.2338724247050595e-05,0.0005242810162238504,-0.007102389970563629,-47.9561765746241,51.66848032886842,4.782981085727357,-1659038.663763019,5098547.315621375,3605963.9632486906,-180.48565106001797,-5261.004436301827,7346.619266176337,0.9949938255077688,-3.618689774584995e-05,0.00034813848892991566,0.09993580285121363
1.26,-9.104384628295339e-06,0.0005375128563959912,-0.007116541866447727,-47.93901983854337,51.63988174429166,4.778163055117227,-1659039.56543708,5098521.010594658,3606000.6968046064,-180.18397340337856,-5261.00625080413,7346.803100041679,0.994995599353389,-3.626849815734232e-05,0.0003494475683718079,0.09991813568308461
1.2650000000000001,1.3909568116604042e-05,0.0005197565604645827,-0.007117624616128472,-47.926930353756504,51.60401701391604,4.779794420745742,-1659040.4656030717,5098494.705558878,3606037.431279424,-179.88242321742433,-5261.008060823681,7346.986827163998,0.9949973764035988,-3.643163056007873e-05,0.0003507817061343304,0.0999004333067991
1.27,4.473370496435925e-06,0.0005354725720834448,-0.007126459305060688,-47.90637528662099,51.58902020641678,4.7743667591741055,-1659041.3642616274,5098468.400514191,3606074.166672572,-179.58099906251965,-5261.009813904857,7347.170431894442,0.9949991534251581,-3.653308219009321e-05,0.00035207742277653753,0.09988272818681479
1.2750000000000001,-2.3618569531577474e-05,0.0005465761414950495,-0.007087368491202224,-47.897339281798594,51.547908263395065,4.777508820324087,-1659042.2614133563,5098442.095460649,3606110.902983617,-179.27969246368463,-5261.011603143377,7347.353986223039,0.9950009323209358,-3.666193850160033e-05,0.00035340987576235186,0.0998650010655919
1.28,-1.7933511964440188e-05,0.0005191135114840868,-0.007115854022954362,-47.88217889161917,51.52993665017534,4.766935125268494,-1659043.1570588613,5098415.790398363,3606147.640212079,-178.97850953034268,-5261.01331116561,7347.537398564506,0.995002701128895,-3.686341117499157e-05,0.0003547629388695562,0.09984737117495358
1.285,-2.4693058632958445e-06,0.0005519757804517515,-0.007112338395759406,-47.86877502387435,51.492329425165956,4.771719891919267,-1659044.0511986816,5098389.48532744,3606184.3783573993,-178.67741863021752,-5261.0150577231625,7347.7207295406815,0.9950044767568476,-3.704391230310429e-05,0.0003560491048566549,0.09982967039220139
1.29,-7.453916050583114e-07,0.0005254994273137378,-0.007084321427658567,-47.863375159851785,51.47026287631382,4.758139619758227,-1659044.9438333951,5098363.1802479625,3606221.117419075,-178.37646678703052,-5261.016733596542,7347.9039409011275,0.9950062511630501,-3.7194144478040985e-05,0.00035742087578441087,0.09981197830604592
1.295,5.4019793564252505e-06,0.000524059072272377,-0.007096135644365597,-47.8503534680865,51.440898372191135,4.754413110425801,-1659045.8349634788,5098336.875160052,3606257.8573965225,-178.07556666395027,-5261.018430463532,7348.087037869821,0.9950080182868494,-3.733345669995333e-05,0.0003587272190301634,0.09979435588184443
1.3,-1.1938067790532692e-05,0.0005411493815519685,-0.007097023036320986,-47.8398929482644,51.41486262395605,4.753534690623835,-1659046.7245893409,5098310.570063706,3606294.598289178,-177.77477815685313,-5261.020108287758,7348.2700245600845,0.9950097880456542,-3.745712844852617e-05,0.00036003151183019826,0.09977670403263666
1.305,-1.6873199494768292e-05,0.0005270024287252303,-0.007107987396592488,-47.823562757274516,51.39212599506549,4.745497089877423,-1659047.612711505,5098284.264959039,3606331.3400965407,-177.47408746933772,-5261.021758262801,7348.452920368465,0.995011557693852,-3.76281978123766e-05,0.00036137399166382637,0.0997590499584441
1.31,-9.959120185893688e-06,0.0005177461911847785,-0.007075133229197118,-47.808064583353364,51.36257633820202,4.7420224296491655,-1659048.4993304883,5098257.959846073,3606368.0828181505,-177.1735058381765,-5261.023428190829,7348.63572349246,0.9950133297733639,-3.780802513616132e-05,0.00036268004858740514,0.09974136858424741
1.315,5.05413353322567e-06,0.0005592261380218196,-0.007060023588883368,-47.79059377588442,51.327609852894675,4.746126975873955,-1659049.3844468717,5098231.654724795,3606404.826453505,-176.8730475839431,-5261.025082745778,7348.81841832411,0.9950150933551765,-3.7968315581931484e-05,0.00036396480735173987,0.09972376889897232
1.32,1.0053496714023737e-05,0.0005363477764551416,-0.007095110775064306,-47.78412339172917,51.298916079505375,4.7488880583729784,-1659050.268061343,5098205.34959538,3606441.5710020647,-176.5727409603783,-5261.026683595812,7349.001005623288,0.9950168528212532,-3.810158757379131e-05,0.00036535649331454726,0.0997062067505856
1.325,-3.6157143494660873e-06,0.0005180858275309562,-0.007063541785708758,-47.75969404099646,51.262130355076025,4.7326226880371465,-1659051.1501745046,5098179.044458101,3606478.3164633242,-176.27252364116444,-5261.028227889218,7349.183498104851,0.9950186207413447,-3.8216752688808967e-05,0.0003666925111006313,0.09968855728755505
1.33,-9.88624157148e-07,0.000528289194267029,-0.007067064605094207,-47.74592783470035,51.24945214764763,4.739740543910055,-1659052.0307869795,5098152.739313009,3606515.0628366307,-175.9724662953,-5261.029808766193,7349.365824440152,0.9950203804958031,-3.8361340382006104e-05,0.0003679796976794797,0.09967098633673199
1.335,-3.669646593926808e-06,0.00050111501626941,-0.007075712625765595,-47.72624423284009,51.21449056336149,4.740176947110279,-1659052.909899415,5098126.434160068,3606551.8101215395,-175.67250789364033,-5261.031367706289,7349.548139153617,0.9950221408067944,-3.850193873233933e-05,0.00036929291981134776,0.09965340658805394
1.34,-1.5071893293401282e-05,0.0005135539730449641,-0.00705769904571894,-47.71592636255984,51.184959351902194,4.738752388943385,-1659053.7875124505,5098100.1289994195,3606588.558317732,-175.37270630653515,-5261.032891877287,7349.730337885816,0.995023902984506,-3.8642444247897834e-05,0.00037053787579031705,0.09963580530072697
1.345,-2.187916157062649e-05,0.0005258509455021919,-0.007046904752308861,-47.70819465979734,51.15176502218443,4.723944161134881,-1659054.6636267346,5098073.823831234,3606625.3074246515,-175.0730073717897,-5261.034381981929,7349.912429798785,0.995025660350436,-3.881439524827323e-05,0.00037181093586147906,0.09961824880135929
1.35,1.527060874028786e-05,0.0005480263064783248,-0.007066393914620428,-47.687313477275644,51.124991356651186,4.734400764699184,-1659055.5382427252,5098047.518655587,3606662.0574416267,-174.77338882807214,-5261.035877025333,7350.09436043634,0.9950274147050239,-3.900633222661164e-05,0.00037311289105135785,0.09960071912748915
1.355,-2.383219786231221e-06,0.000521124365105892,-0.00707749315214683,-47.68364939661913,51.10163267564852,4.734682500972509,-1659056.4113610238,5098021.213472596,3606698.8083681213,-174.47393064322083,-5261.037319075104,7350.276237303973,0.9950291735839104,-3.911139647686637e-05,0.00037447925731378605,0.09958314090499874
1.36,1.0187380178834425e-06,0.000492662167616306,-0.007034939619417814,-47.66186380507301,51.06267169236863,4.72366084631372,-1659057.2829821913,5097994.908282497,3606735.560203794,-174.17453638715796,-5261.038720839712,7350.4580317675845,0.9950309349366958,-3.9253688842385874e-05,0.0003757743067727646,0.09956553506019783
1.365,-5.50184401617587e-06,0.0005167884754481108,-0.007032068948518304,-47.65057631712696,51.038094847832696,4.7181543084338315,-1659058.1531067842,5097968.603085374,3606772.3129480323,-173.87530078498676,-5261.04012807034,7350.639663650616,0.9950326854131458,-3.938039395137466e-05,0.0003769994051670903,0.09954803503905377
1.37,-4.92954961051307e-06,0.0005268817096537682,-0.0070244726717909,-47.63621289431258,51.00524445143852,4.720018325344096,-1659059.0217354314,5097942.297881228,3606809.0666001868,-173.57615801202422,-5261.041530628384,7350.821198144428,0.9950344348425528,-3.952932113949389e-05,0.00037828289711122436,0.0995305421317708
1.375,1.4935672457132497e-05,0.0005134919104078186,-0.007040432975167669,-47.61937508703931,50.99077462525655,4.715648960428382,-1659059.8888686916,5097915.992670185,3606845.821159744,-173.27714614117457,-5261.042886700678,7351.002624768702,0.9950361820634276,-3.9679328962567294e-05,0.0003795916398795308,0.09951306808844414
1.3800000000000001,1.1309918952900997e-05,0.0005305348927025959,-0.0070139837689508835,-47.59362114103703,50.953808736259774,4.712134471303467,-1659060.7545071456,5097889.687452298,3606882.576626313,-172.97823538892675,-5261.044268168969,7351.184002790739,0.9950379329603803,-3.977660423249354e-05,0.0003808720147328195,0.09949555429396811
1.385,9.847432242660386e-06,0.000519124299432152,-0.007034631193868082,-47.57894446701898,50.91225418379966,4.711921845451571,-1659061.6186515018,5097863.382227532,3606919.3329994464,-172.67950712285233,-5261.045638139295,7351.365250512001,0.9950396769529972,-3.9887112963772084e-05,0.00038219388626685425,0.09947810626528075
1.3900000000000001,-1.3406638010871489e-05,0.0005124855698577243,-0.007028340717028561,-47.57911639451815,50.89345264792144,4.715325133983235,-1659062.4813025796,5097837.07699606,3606956.090278446,-172.3809240407107,-5261.046950353076,7351.546349423945,0.9950414257827223,-3.999844173121483e-05,0.00038348700692732987,0.0994606068457626
1.395,-1.911793179553482e-05,0.0005213797965401599,-0.007015072711996069,-47.55708887345991,50.86356767996129,4.706546587920343,-1659063.3424608484,5097810.771758153,3606992.8484627944,-172.0823834413174,-5261.048212585617,7351.727389945773,0.9950431727432155,-4.0165960633309e-05,0.00038475783141048983,0.09944312306651508
1.4000000000000001,-4.850168614152252e-06,0.0005234924698393047,-0.0070323582935244025,-47.53749827848756,50.82617369673949,4.698444640303299,-1659064.2021267798,5097784.46651389,3607029.6075520474,-171.78398913302337,-5261.0494927344325,7351.9083111109185,0.9950449160877616,-4.0349885394452615e-05,0.0003860493625833631,0.09942567226665275
1.405,2.7203363683210376e-06,0.000518688551006159,-0.007025289434391266,-47.520136188819436,50.815694622842216,4.696543064865069,-1659065.0603011139,5097758.161263243,3607066.3675455307,-171.48574445500935,-5261.050765852181,7352.08908228572,0.9950466634197844,-4.049885929766988e-05,0.0003873496938597977,0.09940817842215653
1.41,4.945546985588174e-06,0.0005268537424564679,-0.00701870441776709,-47.504014720362036,50.76793733044191,4.693005686438646,-1659065.9169844731,5097731.856006167,3607103.1284428076,-171.18759926072966,-5261.052064872776,7352.269828371923,0.995048408691533,-4.062779995665407e-05,0.00038863995684843136,0.09939070212456362
1.415,2.0360563435235352e-05,0.0005369200000528237,-0.006995579010533963,-47.502788385865635,50.743031923206246,4.688941023262047,-1659066.7721775025,5097705.550742734,3607139.890243359,-170.88961250968376,-5261.053307915239,7352.450392295477,0.9950501520109991,-4.075322758458468e-05,0.0003899510852004842,0.09937324217420535
1.42,6.352182481764169e-06,0.0005138990428940974,-0.007015009726767825,-47.47813033041494,50.72062842476846,4.680721684852745,-1659067.6258807234,5097679.245473167,3607176.652946473,-170.5916757950989,-5261.054519176411,7352.630853249638,0.9950518892699876,-4.084278666099832e-05,0.00039129108646654686,0.09935583970447256
1.425,-1.4873848418602218e-05,0.000521092564580917,-0.0069934421905504555,-47.46290175448267,50.68294426858377,4.695247059208986,-1659068.478094624,5097652.940197447,3607213.4165516784,-170.29388449281595,-5261.055768614124,7352.811228922234,0.9950536310695379,-4.09614942310108e-05,0.00039257033847449633,0.09933838888372101
1.43,-8.038617913196515e-06,0.0005407071998506634,-0.00699991534551905,-47.44792327591276,50.64642318249865,4.677427104219257,-1659069.328819967,5097626.634915745,3607250.1810585335,-169.99625278562726,-5261.056912215699,7352.991513113838,0.9950553671968736,-4.113476970138154e-05,0.00039386221602041844,0.09932099170457717
1.435,-3.538852684343576e-06,0.0005317863125987437,-0.0069913753068459655,-47.429537361840225,50.62590229676111,4.679888237866792,-1659070.178057439,5097600.329628265,3607286.946466366,-169.69873589579078,-5261.05807959494,7353.171619848041,0.9950571046066979,-4.1295918313494315e-05,0.0003952045841043919,0.09930357838325357
1.44,-5.282137550414462e-07,0.0004903393150398586,-0.007019121337431986,-47.423465092953236,50.58825954829741,4.680558490733273,-1659071.0258076452,5097574.02433498,3607323.7127746,-169.40134659010255,-5261.05923458958,7353.35167366122,0.9950588395995137,-4.1443649976776214e-05,0.0003965258780748218,0.09928618627241811
1.445,1.795796141773555e-05,0.0005144687348597611,-0.006990639330017696,-47.40378438967692,50.555271232897695,4.6728356807542495,-1659071.8720711563,5097547.719036095,3607360.4799827584,-169.10405786003105,-5261.0603196819675,7353.531589892784,0.9950605812139002,-4.157363193932565e-05,0.00039774481083215197,0.09926872510994544
1.45,5.313370146686843e-06,0.0005119894199512878,-0.006992476289657466,-47.38031167967228,50.52969524623902,4.669176724236551,-1659072.7168485802,5097521.413731779,3607397.2480901713,-168.80691170272556,-5261.061406518864,7353.711375099111,0.9950623154310478,-4.1663586648966666e-05,0.0003990283597610022,0.09925133474928972
1.455,-1.3710681781862707e-05,0.0004955877541658283,-0.006976656431521757,-47.369439368118364,50.50019355293506,4.663277423749585,-1659073.560140652,5097495.108422004,3607434.0170962936,-168.5099171122839,-5261.062503814509,7353.891073848094,0.995064049799511,-4.178438338068875e-05,0.0004003026032124654,0.09923393980129691
1.46,1.2539806967255039e-06,0.0005091270856992004,-0.006983813514880924,-47.34804038756082,50.468359589945706,4.6608578965380865,-1659074.4019479991,5097468.803106779,3607470.787000612,-168.21302163792922,-5261.063585629968,7354.070653619406,0.9950657799527579,-4.194842063837788e-05,0.00040153132684479136,0.09921658419807201
1.465,-1.1253304625475727e-05,0.0005275441460137773,-0.006986775888956642,-47.334370680979404,50.44033606390952,4.662656769467606,-1659075.242271256,5097442.497786179,3607507.557802554,-167.9162811472821,-5261.06465440132,7354.250123213077,0.9950675115646457,-4.2078596324426836e-05,0.00040279744277410263,0.09919921074361307
1.47,2.9876525457630112e-05,0.0005411064612090014,-0.006977503347481659,-47.315227107742146,50.409734544068336,4.6590568459504285,-1659076.0811111077,5097416.192460327,3607544.3295016214,-167.61965955837877,-5261.065686458814,7354.429503621171,0.9950692435862023,-4.2244456358488194e-05,0.0004041062720321271,0.09918182989998707
1.475,7.966545938089493e-06,0.0005315328674794903,-0.0069846170205782425,-47.29987618089567,50.37986298801716,4.652270674643246,-1659076.9184682046,5097389.88712934,3607581.102097315,-167.32317911613964,-5261.066708318868,7354.608773737937,0.9950709729942662,-4.2311352277695115e-05,0.00040545903908191836,0.09916447205003187
1.48,-1.990925393363611e-06,0.0005153332780288858,-0.00698028197530675,-47.29153188882958,50.34494830207465,4.649016951834143,-1659077.7543431958,5097363.581793253,3607617.87558906,-167.02681740139533,-5261.067726398478,7354.787924540737,0.9950727038683901,-4.2430386955367866e-05,0.00040678255751305976,0.09914709649639068
1.485,-5.033350666726209e-06,0.0005095403783568684,-0.006968309714550077,-47.25903353323829,50.30660573805151,4.639629694518617,-1659078.5887366305,5097337.276452186,3607654.649976221,-166.73055647967007,-5261.068700888923,7354.966939681969,0.9950744333784945,-4.2570172875648666e-05,0.0004080633087202789,0.09912973170842569
1.49,9.519358172371732e-06,0.0005607169585681933,-0.006954435334550667,-47.26100292398117,50.275972549887584,4.639450311015323,-1659079.4216492793,5097310.971106189,3607691.4252580893,-166.43450302755076,-5261.069697418885,7355.145807748693,0.9950761596230265,-4.2716079546850134e-05,0.0004093288961740299,0.09911239667710874
1.495,9.752756206633351e-06,0.0005291114111761929,-0.006956584153910211,-47.23157755837532,50.25524948336376,4.635271291630586,-1659080.2530817876,5097284.665755379,3607728.201434003,-166.13850031920526,-5261.070627037357,7355.3245576865165,0.9950778820757609,-4.283844995681451e-05,0.0004107254023565862,0.09909509611039946
1.5,-2.7004892739626785e-05,0.0005448522495434027,-0.006960251064031129,-47.2211571269042,50.21952424930259,4.643018930623206,-1659081.0830347047,5097258.36039983,3607764.9785035076,-165.84266651158657,-5261.071592362291,7355.503244200833,0.9950796047905869,-4.295241205023803e-05,0.00041204334105266274,0.0990777901710814
1.5050000000000001,2.0974219043023075e-05,0.0005118068852902568,-0.006966915380415657,-47.201753573266544,50.18848797196384,4.632025312158072,-1659081.911508767,5097232.055039667,3607801.7564661787,-165.546958344877,-5261.072473064658,7355.681824161999,0.9950813280905949,-4.316171879356742e-05,0.0004133913330310232,0.09906047511560677
1.51,1.9316308768860675e-05,0.0005347159970319678,-0.006950688030281885,-47.185227711359154,50.16145724788442,4.6267249924620915,-1659082.738504622,5097205.749675053,3607838.5353214177,-165.25138370076166,-5261.073372159724,7355.860271519725,0.995083052777035,-4.324349089177945e-05,0.00041466899918591964,0.09904314340507464
1.5150000000000001,-1.893415486572101e-05,0.0005197801759714107,-0.006953756434266518,-47.16566187791775,50.127984009265916,4.623472954703926,-1659083.5640229057,5097179.444305947,3607875.315068637,-164.9559298246046,-5261.074270537045,7356.038616136328,0.9950847731186531,-4.333504302652983e-05,0.0004160032476294262,0.09902585203254151
1.52,1.3711343532934304e-05,0.0005207987069367052,-0.006945815488607179,-47.15231961815736,50.093605289076976,4.6178600679568875,-1659084.3880642916,5097153.138932392,3607912.0957072773,-164.66062448519713,-5261.0751514576295,7356.2168400238415,0.9950864939289584,-4.351805689301995e-05,0.00041729087013196595,0.09900855303801566
1.5250000000000001,5.493722671630029e-06,0.0004912098239083135,-0.0069610593840688665,-47.13392361301615,50.05413170211364,4.6204609963744465,-1659085.2106294485,5097126.83355449,3607948.877236697,-164.3654382909355,-5261.076009479463,7356.394927793528,0.9950882124741248,-4.362010183398593e-05,0.0004185891076466735,0.09899127373408614
1.53,-1.3115039833242437e-05,0.0005150398304697897,-0.006941108250843057,-47.11931758063309,50.03191383088313,4.620356805566358,-1659086.031719078,5097100.528172439,3607985.659656231,-164.0704135759977,-5261.076810773458,7356.572885831812,0.9950899345195908,-4.373528325504819e-05,0.00041981170081819105,0.09897395648935839
1.5350000000000001,-1.1714195044566415e-05,0.0005233580206290945,-0.006954468988594459,-47.10040040724066,49.997949167348864,4.619276621346986,-1659086.8513338596,5097074.222786416,3608022.4429653795,-163.77549905087358,-5261.077598037691,7356.750773599188,0.9950916512993269,-4.39026335793089e-05,0.0004210889740857207,0.09895668886443977
1.54,1.854995289755761e-05,0.0005121034034614934,-0.006927206321163183,-47.07891857375702,49.96656087271677,4.607167028581819,-1659087.6694744418,5097047.91739653,3608059.227163674,-163.4807337582255,-5261.07835684285,7356.928544112389,0.9950933710739004,-4.406857088439042e-05,0.00042238728572043275,0.09893938796921502
1.545,9.292742287825861e-06,0.0005020720093907087,-0.0069295833602528905,-47.05742827297819,49.927754961235756,4.609523035737729,-1659088.4861415522,5097021.6120027825,3608096.012250482,-163.18611045634745,-5261.079141818281,7357.106179097662,0.9950950838190258,-4.41564064428442e-05,0.0004236650875341621,0.09892215483556509
1.55,4.047443650457347e-06,0.0005229354205957751,-0.006915390038953717,-47.05173319753726,49.89529983882862,4.610349208829829,-1659089.3013359809,5096995.306605231,3608132.798225152,-162.89166097578055,-5261.079878838865,7357.283688842572,0.9950967968614629,-4.4264793199753785e-05,0.0004249156441223377,0.09890491576954025
1.555,1.9659093855763753e-05,0.0005191043853138859,-0.006914446969695396,-47.03573601545952,49.86369974045467,4.6029859270978415,-1659090.115058386,5096969.001204143,3608169.585087079,-162.5973010741861,-5261.080556322958,7357.461082010189,0.9950985060720121,-4.439137255039482e-05,0.00042621680797281863,0.09888771198631502
1.56,-5.005274331356419e-06,0.000501967065492048,-0.006903015285568704,-47.006968032840525,49.83000357804482,4.595636132364381,-1659090.927309301,5096942.695799679,3608206.372835653,-162.30306496124408,-5261.081229509999,7357.638347542665,0.9951002147561556,-4.4478165952564445e-05,0.0004275123006570674,0.09887051050327655
1.565,-1.5021311026434041e-05,0.0005033814983960352,-0.006912418435087637,-46.998803058536026,49.79812741571146,4.598691120993815,-1659091.738089498,5096916.390391806,3608243.16147024,-162.0090137430532,-5261.081919570495,7357.81548734392,0.9951019203317543,-4.462206997972573e-05,0.00042875906466096643,0.09885333745802688
1.57,2.5179093513846312e-05,0.0005062309958347442,-0.006892395487351593,-46.98211360332023,49.770617077586785,4.60065328848189,-1659092.5473996946,5096890.084980638,3608279.950990261,-161.71506497903027,-5261.082547655812,7357.992521106845,0.9951036279302109,-4.4791251069625626e-05,0.00043000687095295865,0.09883614100098814
1.575,-3.2853449532858423e-06,0.0005304582504331181,-0.0069206428114015756,-46.95691494038323,49.73319262320289,4.594946543834293,-1659093.3552404766,5096863.779566405,3608316.74139524,-161.42124776413937,-5261.083145542833,7358.169470450174,0.9951053302847284,-4.486110578343123e-05,0.0004312717013535789,0.09881899428309585
1.58,-3.998864265531027e-06,0.0005179972063171559,-0.006876102673415131,-46.9440787595697,49.703156904259274,4.576320495472589,-1659094.1616126162,5096837.474149196,3608353.5326846177,-161.1276081291889,-5261.0837379142495,7358.346280545917,0.9951070392900215,-4.50077890079116e-05,0.0004325897680643962,0.09880177729089255
1.585,-1.1490944479065732e-05,0.0005052832004215056,-0.006900868882773891,-46.91968182108804,49.66227559383707,4.582088857768353,-1659094.9665167886,5096811.168728933,3608390.324857657,-160.8340607923805,-5261.084367492371,7358.522935268007,0.9951087370094192,-4.5153121186821794e-05,0.0004338766632332179,0.09878467107681925
1.59,5.5263178369322816e-06,0.0005196838632885314,-0.006894816942471484,-46.906993809076646,49.63331061885994,4.578668883418521,-1659095.7699537112,5096784.863305672,3608427.1179136652,-160.54070830485156,-5261.084936724198,7358.699468087837,0.9951104405613171,-4.531397892991715e-05,0.0004351300756744043,0.09876750323017107
1.595,-4.0637654521332506e-06,0.0005051709648712955,-0.006893815840051012,-46.88587363117474,49.597311027718995,4.572696471236707,-1659096.5719241446,5096758.5578796165,3608463.9118520664,-160.24746503618866,-5261.085485403034,7358.875892233955,0.9951121423075832,-4.543605073134168e-05,0.00043642351617727,0.0987503503897188
1.6,-1.4578336415581272e-05,0.0005283180780119234,-0.006871675528611274,-46.868985169259304,49.56964113268478,4.572056951147789,-1659097.3724287525,5096732.252450842,3608500.706672244,-159.9543781151493,-5261.086024549594,7359.052178833122,0.9951138435241922,-4.557839656325546e-05,0.00043767848419968506,0.09873320002240324
1.605,9.880962874723462e-06,0.0005156770132474037,-0.006879331343972229,-46.851729038619744,49.53686105057438,4.57654366612425,-1659098.171468249,5096705.9470194215,3608537.502373624,-159.6614205278906,-5261.08654371534,7359.228373193059,0.9951155389530235,-4.5752589614942446e-05,0.00043898844430329345,0.0987161047148836
1.61,-1.7466210627292394e-05,0.0004911984624545939,-0.006893934527057605,-46.83408394193493,49.50222513080107,4.561172130191936,-1659098.9690433245,5096679.641585533,3608574.2989557297,-159.36860959986845,-5261.087011639251,7359.40446915608,0.9951172359922003,-4.586282179139822e-05,0.00044027299141770603,0.09869899030658019
1.615,-4.685116075645981e-06,0.0005083838200054291,-0.006889007719961529,-46.81464920984956,49.46363279538048,4.560418832045295,-1659099.7651546607,5096653.336149246,3608611.0964179127,-159.0759248693931,-5261.087503077887,7359.580403965327,0.9951189363619407,-4.603506411632321e-05,0.00044148989131101614,0.09868183957207392
1.62,-3.0154083930138437e-06,0.0004857753470710417,-0.006862595947103292,-46.786839405518435,49.43150419258275,4.554005354042507,-1659100.5598029732,5096627.030710601,3608647.8947594324,-158.78340018704083,-5261.08795502262,7359.756203852152,0.9951206352017847,-4.6179743923350384e-05,0.00044275269848122694,0.09866470104893502
1.625,1.068958287307365e-06,0.0005210022566901952,-0.006868535532503999,-46.77181054747792,49.406055959242664,4.5531152710201885,-1659101.3529891097,5096600.725269659,3608684.693979657,-158.49105438693766,-5261.088421718804,7359.9318860600815,0.9951223272564962,-4.6314663934981724e-05,0.00044395967502730755,0.09864762820450257
1.6300000000000001,2.3513720858486316e-05,0.0005131454136849707,-0.006855156474604083,-46.75321856520661,49.36906724643073,4.55384008126073,-1659102.1447138088,5096574.419826428,3608721.4940780792,-158.19882522507828,-5261.088870694635,7360.107482764293,0.9951240204426562,-4.644811704174746e-05,0.00044525529574758574,0.09863054054570496
1.635,-1.211994226766912e-05,0.000507855912523088,-0.006867692409722658,-46.74302385038553,49.32318416461956,4.547961696056799,-1659102.93497775,5096548.114381061,3608758.295054172,-157.9067513457156,-5261.089276232415,7360.282954491917,0.9951257100466981,-4.652377962443182e-05,0.000446536905904333,0.09861348611820013
1.6400000000000001,1.0075429330718535e-05,0.0005089119026001332,-0.0068654842671071,-46.72534810543077,49.296170566539615,4.5433232747714705,-1659103.7237816344,5096521.808933804,3608795.096907158,-157.6148023660329,-5261.089626685501,7360.458239798501,0.9951274024485973,-4.6686802083164636e-05,0.00044779657027505535,0.09859640051483426
1.645,-1.0182286894096343e-05,0.0004815659446732755,-0.0068437278668545525,-46.701942782206785,49.26135088746439,4.552583229207013,-1659104.51112609,5096495.503484797,3608831.89963632,-157.3229798719218,-5261.089975958319,7360.633424898612,0.9951290940127576,-4.6794864291917975e-05,0.0004490643328418454,0.09857932035074116
1.6500000000000001,-1.0791459634884052e-05,0.0005198158601471374,-0.006865269449534908,-46.68741719253137,49.22574855465191,4.540658814568941,-1659105.297011893,5096469.1980342,3608868.7032411858,-157.03134135798626,-5261.090262955271,7360.808521583178,0.9951307799496625,-4.6946560303898555e-05,0.0004502590734457142,0.09856229430955668
1.655,5.861116066174835e-07,0.0004980449158395909,-0.006859753733829026,-46.671213479563036,49.19211863528446,4.535003613320729,-1659106.0814397992,5096442.892582164,3608905.50772114,-156.73982106496214,-5261.090551245795,7360.983460161907,0.9951324708576256,-4.7109221065183004e-05,0.0004515488204552815,0.09854521464374101
1.6600000000000001,-2.0034874237132043e-05,0.0005009155622514535,-0.00684751374171843,-46.64833370234652,49.16058339715355,4.524386905203976,-1659106.8644104295,5096416.587128726,3608942.3130754596,-156.44843109760947,-5261.090824077903,7361.158267588867,0.9951341601381195,-4.7238206553583405e-05,0.00045278720855981196,0.09852814866064992
1.665,-9.006447106570791e-06,0.0004880086143263904,-0.006869419310168033,-46.62822510217689,49.11899280004978,4.522285492525418,-1659107.6459244855,5096390.281673867,3608979.119303488,-156.15719132685763,-5261.091119443986,7361.332943891042,0.9951358461042679,-4.7419186890024176e-05,0.000454027660303064,0.09851111312256834
1.67,8.631143018056358e-06,0.0005029089822702139,-0.00682362203311397,-46.607810313113795,49.0879427289792,4.52007005074023,-1659108.425982759,5096363.976217631,3609015.9264045223,-155.86611811851108,-5261.091374961331,7361.507469732948,0.9951375371871445,-4.756957642436219e-05,0.0004552387149555029,0.09849402304684572
1.675,7.571443301752102e-06,0.0004872063854812129,-0.00682435368781811,-46.58673793091788,49.06232745330326,4.522483623934018,-1659109.2045860393,5096337.670760154,3609052.7343779164,-155.57519394917915,-5261.091616010355,7361.681887902913,0.9951392166851913,-4.7679703245922056e-05,0.0004564911877019302,0.09847704685674441
1.68,-1.2592732106425927e-05,0.0004923554776027544,-0.00681516906570197,-46.5609042705407,49.027454576482825,4.520694055090473,-1659109.9817350693,5096311.365301518,3609089.543223221,-155.28441802550944,-5261.091838132271,7361.856233930925,0.995140896090007,-4.7788601396981663e-05,0.00045770433366267086,0.09846006882066659
1.685,1.7021080343713152e-06,0.0005135764241973768,-0.006830629354618935,-46.538438615187125,48.996394670797386,4.508864564609327,-1659110.7574306715,5096285.059841807,3609126.3529399615,-154.99382279582576,-5261.0920462736385,7362.030462268886,0.995142572934963,-4.7948921963347134e-05,0.0004589253273521022,0.09844311362826104
1.69,5.281659473000493e-06,0.0005090103267027992,-0.0068175391799792364,-46.52566169485601,48.95817437170817,4.513353027142391,-1659111.531673662,5096258.754380987,3609163.163527511,-154.7033734249019,-5261.092281912436,7362.204557581525,0.9951442532710715,-4.807891938362878e-05,0.0004602026317939363,0.098426119925134
1.695,-9.632053616960302e-06,0.0004912488451102629,-0.006814179664086458,-46.50056446285303,48.910925138850764,4.507849768024151,-1659112.3044647458,5096232.448919171,3609199.9749852265,-154.4130601083233,-5261.0924444582015,7362.378528589264,0.9951459301005618,-4.819887274624792e-05,0.00046146945866367437,0.09840915875615983
1.7,-1.0309926857645276e-05,0.0005068866100302273,-0.006813506169013288,-46.48399718199594,48.89137323126232,4.501057468652357,-1659113.0758047495,5096206.1434566155,3609236.7873123493,-154.12294139804786,-5261.092577579318,7362.552320595114,0.9951476058317316,-4.8351555790066414e-05,0.00046268842852332164,0.09839220593582586
1.705,1.432660226634228e-05,0.0005267461874966828,-0.006830790315059552,-46.47655800546495,48.84409015227039,4.500562841665856,-1659113.8456944232,5096179.83799334,3609273.60050824,-153.832928028141,-5261.092732819314,7362.726035644535,0.9951492810887441,-4.850977108603466e-05,0.0004639461362965878,0.09837525476124873
1.71,1.4109346116382125e-05,0.00048506419596455996,-0.006813406272971208,-46.44657601778915,48.8031279666497,4.498856140650984,-1659114.6141343343,5096153.5325295,3609310.4145722575,-153.54303639778826,-5261.092802802864,7362.899571243397,0.9951509602854027,-4.861159808195512e-05,0.00046525930901066573,0.09835826052614394
1.715,1.0382704062866235e-05,0.0004937933206939445,-0.006825794951101288,-46.43229240569555,48.78255579992169,4.488733382491932,-1659115.3811253128,5096127.227065361,3609347.2295036055,-153.25335500807068,-5261.092852819632,7363.07296797258,0.9951526349647897,-4.870369592965414e-05,0.0004664687305942367,0.09834130951695445
1.72,-9.37517892865675e-06,0.00048175980724283644,-0.006795705078193576,-46.405142264832975,48.737351276412525,4.482819424948354,-1659116.1466681156,5096100.9216009015,3609384.0453017065,-152.96376621873222,-5261.0929310309875,7363.246272425401,0.9951543123885898,-4.8807225738479655e-05,0.00046769895135462855,0.0983243276607518
1.725,1.1543216032600044e-05,0.0005064950907510356,-0.006792181784712916,-46.38839034336998,48.710756016840875,4.491525890745982,-1659116.910763474,5096074.616136098,3609420.861965904,-152.67437704837587,-5261.0929903089445,7363.419406657336,0.995155982137641,-4.89569177389502e-05,0.0004688943809418254,0.09830742066063418
1.73,1.2580921133898117e-05,0.0004978977662858805,-0.006785354796850245,-46.36730313514221,48.672327420867376,4.485097120230446,-1659117.6734122327,5096048.310671136,3609457.6794956177,-152.3851264410867,-5261.092994730869,7363.592478734932,0.995157650705734,-4.906064208517934e-05,0.00047015649057127333,0.09829052237002382
1.735,5.533964183255193e-06,0.0005136021331343877,-0.0067975872307842146,-46.351344627406974,48.638200192239125,4.479707346831799,-1659118.4346151373,5096022.005206185,3609494.4978903187,-152.09603546856582,-5261.092985441633,7363.765401747686,0.995159317318268,-4.9159664103613344e-05,0.00047139746666029295,0.098273641035604
1.74,1.4403295210073556e-05,0.0005009819202156978,-0.006785420016248652,-46.3316356350322,48.6020369689324,4.473960634297434,-1659119.1943729129,5095995.699741327,3609531.317149303,-151.80707475949768,-5261.092957797537,7363.938191920922,0.9951609866282708,-4.9280090949090784e-05,0.00047267578065149357,0.09825672924602034
1.745,-1.5817855462055297e-05,0.0005003082024624495,-0.006789213883629482,-46.306084179790446,48.57121287514794,4.469806164755322,-1659119.9526862607,5095969.394276642,3609568.1372718904,-151.5182643293698,-5261.09291615725,7364.11084302362,0.9951626526770176,-4.937533731976416e-05,0.0004739248768244706,0.0982398476898703
1.75,-1.7741604586889834e-05,0.0005098611872725356,-0.006751465318468752,-46.291168488999645,48.53618690196089,4.466022331100701,-1659120.709555979,5095943.088812156,3609604.958257463,-151.22962296961086,-5261.092878451452,7364.283385908144,0.995164319366514,-4.9545610107513305e-05,0.00047516487394197844,0.09822295670238247
1.7550000000000001,9.824519544468166e-06,0.0004927970428766968,-0.006789367938646402,-46.272934651837346,48.49086420003637,4.465280351013225,-1659121.4649828135,5095916.78334793,3609641.780105417,-150.94111081797686,-5261.092811873179,7364.455795915946,0.995165976488295,-4.9722969961261656e-05,0.00047642817018153687,0.09820615960276309
1.76,2.305519146724818e-06,0.0004926186547628578,-0.006780671257879988,-46.25335717071815,48.4628520151378,4.462008621081326,-1659122.218967503,5095890.477884182,3609678.602815013,-150.65276495812054,-5261.092687406838,7364.628042331384,0.9951676426528309,-4.98276032630631e-05,0.00047765577534044013,0.09818926814564687
1.7650000000000001,-3.879586777350251e-06,0.00046676441476705473,-0.006775222522030144,-46.222698758528544,48.41642341330719,4.454560099603174,-1659122.971510809,5095864.172421069,3609715.4263855927,-150.36455743850675,-5261.092557693607,7364.800189575657,0.9951693063939935,-4.9950889040658537e-05,0.0004788810919164585,0.09817239830576907
1.77,3.5226073088910628e-06,0.000485500506651615,-0.006752790508364,-46.21212542652871,48.39100977082932,4.449264830698859,-1659123.722613616,5095837.866958627,3609752.2508164668,-150.07656538622268,-5261.092419306201,7364.97216002291,0.995170968540874,-5.008321091766066e-05,0.00048004056765279753,0.09815554200423193
1.7750000000000001,-2.0896304605395782e-05,0.0005041613993219723,-0.006752861645619608,-46.186931986610915,48.349913111424655,4.447026610348163,-1659124.4722766893,5095811.5614969,3609789.076106939,-149.78866395718362,-5261.092271288268,7365.144028877748,0.9951726248756505,-5.020168736606693e-05,0.0004812484765125552,0.09813874147248075
1.78,-2.541997620936373e-07,0.0004925890991819412,-0.006739584614187428,-46.16284771936409,48.30937633604793,4.4487541234648695,-1659125.2205007258,5095785.2560359845,3609825.902256393,-149.50095062352753,-5261.092095179184,7365.31575271817,0.9951742809172112,-5.038549485864458e-05,0.00048249682114613233,0.09812194076266151
1.7850000000000001,-2.502748818180985e-05,0.00047081724314372786,-0.006723655374588802,-46.15017955784056,48.27795412867879,4.451171788226005,-1659125.9672866636,5095758.95057606,3609862.7292641345,-149.21342449320915,-5261.09187438219,7365.487344005108,0.9951759334337897,-5.051509135051899e-05,0.0004837214397839357,0.09810517303373811
1.79,-9.094901588365424e-06,0.000484179666955681,-0.006762684834567064,-46.12781862561693,48.249709325195724,4.433328504592246,-1659126.7126352722,5095732.645117365,3609899.557129576,-148.9260189495051,-5261.091603894579,7365.658832493769,0.9951775817834194,-5.070096318653101e-05,0.0004848858172584533,0.09808844494058476
1.795,1.5191917763731977e-05,0.00048451045717323987,-0.006748586071617301,-46.103386208671616,48.20318340693704,4.43707820032452,-1659127.4565471841,5095706.339659878,3609936.3858521124,-148.63874583069634,-5261.091390657323,7365.830182201411,0.9951792394054759,-5.0850519686078584e-05,0.0004860873416155423,0.09807161969529898
1.8,-1.9247138168331886e-05,0.0005017476287865881,-0.006735560596296414,-46.079789710256044,48.16767513176175,4.428581026723253,-1659128.1990232354,5095680.0342036225,3609973.2154310206,-148.35167469087523,-5261.091111651598,7366.001380922707,0.99518089328817,-5.0939715794807224e-05,0.00048729564523376155,0.09805482946932985
1.805,3.2528954013396747e-07,0.0005064603592364435,-0.006739842924680196,-46.06250426150288,48.138023214632085,4.426747131012335,-1659128.9400643383,5095653.728748746,3610010.045865569,-148.0647664590483,-5261.090838793035,7366.172438512393,0.9951825436682094,-5.111880421678471e-05,0.0004885383933417982,0.09803807166187459
1.81,3.819652679482789e-05,0.0004977276075673974,-0.006712017947583252,-46.04238916234897,48.09796940786792,4.420532238449269,-1659129.6796712317,5095627.423295283,3610046.877155146,-147.7779909190831,-5261.090546469547,7366.343392295403,0.9951841948106281,-5.125035757585778e-05,0.0004897976629385465,0.09802130314769415
1.815,-2.7066665390119797e-06,0.0005036631052596765,-0.006748663242011506,-46.02021953937095,48.05321422604706,4.421504942089823,-1659130.4178446431,5095601.117843333,3610083.709299102,-147.49137362631922,-5261.090233691832,7366.514190023181,0.9951858388670404,-5.1285514717734466e-05,0.0004910444896901107,0.09800460378783367
1.82,-2.0009122533171233e-05,0.0004886852226940853,-0.00673211188613012,-45.99682033086117,48.02065766705519,4.416944952713595,-1659131.1545854306,5095574.812393085,3610120.5422966625,-147.2049413790475,-5261.089865414366,7366.684834316497,0.9951874916061285,-5.142393679337239e-05,0.0004922960571584279,0.09798781327732999
