t_s,gyro_x_radps,gyro_y_radps,gyro_z_radps,accel_x_mps2,accel_y_mps2,accel_z_mps2,ins_pos_ecef_x_m,ins_pos_ecef_y_m,ins_pos_ecef_z_m,ins_vel_ecef_x_mps,ins_vel_ecef_y_mps,ins_vel_ecef_z_mps,ins_quat_w,ins_quat_x,ins_quat_y,ins_quat_z
0.0,-1.3870837395469179e-05,0.0006411906179773838,-0.007279680105111766,-41.75568962405114,48.22354722713881,5.150165244777047,-1658763.5840503734,5105149.374697655,3596773.925093057,-226.82286500164605,-4617.160284474699,6406.276788851849,0.9945218953682734,0.0,0.0,0.10452846326765354
0.005,-2.289476050201301e-06,0.0006562000077181791,-0.0073203286353067725,-41.75982710473852,48.216630555507635,5.1429735696384995,-1658764.7174933096,5105126.288887624,3596805.956911853,-226.55430946102157,-4617.163728177141,6406.450729561988,0.9945237975367329,-2.0204380362684997e-07,1.590570528326766e-06,0.10451036374707018
0.01,-3.157806383055744e-05,0.0006680101023051034,-0.007311198903249129,-41.76529799696573,48.21154119613197,5.139524094336401,-1658765.8495934438,5105103.203060347,3596837.9896002435,-226.28574419145204,-4617.167182530555,6406.624626610268,0.994525709991762,-3.7921451211170223e-07,3.22148495451087e-06,0.10449216312652294
0.015,-2.3897960282939954e-06,0.000641753767731905,-0.007319906819000473,-41.76459951554061,48.219812277499,5.146480719811036,-1658766.980350716,5105080.117215805,3596870.023158052,-226.01716470890094,-4617.170634211763,6406.798496779299,0.9945276197263051,-6.322909366565576e-07,4.874111925292551e-06,0.10447398517034397
0.02,-1.0006160454760871e-05,0.0006357410305004282,-0.0073359505317678745,-41.78173487410751,48.21656068939341,5.141932962526618,-1658768.1097650963,5105057.031354006,3596902.0575853656,-225.74858742413087,-4617.17408540363,6406.972428632893,0.994529531400268,-8.059383610749805e-07,6.469080792498585e-06,0.10445578552796869
0.025,4.861453815182845e-06,0.0006368242218655181,-0.007331657261673816,-41.779712947073236,48.21689945370015,5.13706446733535,-1658769.2378364124,5105033.945474996,3596934.092882257,-225.47993897997614,-4617.177518380321,6407.146327935176,0.9945314469276425,-9.969526300704857e-07,8.047111080016488e-06,0.10443754596053992
0.03,-1.103860735747265e-05,0.0006606171237059527,-0.007311107258544584,-41.77503104136636,48.21529462905642,5.142263083616032,-1658770.364564505,5105010.859578745,3596966.129048639,-225.2112980599484,-4617.1809821600145,6407.320224856574,0.994533360997253,-1.1512838521509738e-06,9.631716388069554e-06,0.10441931703191822
0.035,-1.1720340339077781e-05,0.0006441867200712336,-0.007299100107245431,-41.7877052077398,48.20320520762374,5.143232730340573,-1658771.4899494825,5104987.773665194,3596998.166084556,-224.9426930214927,-4617.184438092875,6407.494141957376,0.9945352693658986,-1.3513585286047402e-06,1.1271328154782391e-05,0.10440113916251302
0.04,3.7723103877127117e-06,0.000656079004467595,-0.007336730138266281,-41.78611491572345,48.20538120088995,5.140271581845297,-1658772.6139913653,5104964.687734492,3597030.2039899356,-224.67406003217542,-4617.187843101892,6407.668009943238,0.9945371742667515,-1.5488395028597558e-06,1.2869910484262008e-05,0.10438299111192258
0.045,4.676663760966219e-06,0.0006470900921728472,-0.007274242825620128,-41.79266591535069,48.212937982953704,5.140398604301881,-1658773.7366900945,5104941.601786697,3597062.2427646806,-224.40543168920541,-4617.191274651786,6407.841887923525,0.9945390886516187,-1.7109050251860166e-06,1.4502103884045334e-05,0.10436474946441282
0.05,1.3920532577746209e-06,0.0006478566204700332,-0.007322557631049822,-41.7925289417052,48.189506643227965,5.142957327525992,-1658774.858045588,5104918.5158217205,3597094.2824088987,-224.13676571648247,-4617.194716050819,6408.015799401438,0.9945409863987467,-1.8683744305433144e-06,1.6112183941159478e-05,0.10434666314700633
0.055,2.0887937899358416e-05,0.0006694292876422649,-0.00733730475293976,-41.80471730734912,48.1943964206525,5.135027716014116,-1658775.978057882,5104895.429839678,3597126.322922475,-223.86815187102226,-4617.198100791089,6408.189631206522,0.9945428964158415,-2.0342124425182647e-06,1.7723312781348073e-05,0.10432845666708043
0.06,9.745398112793754e-06,0.0006585361834026916,-0.0073026600028974304,-41.8095803973649,48.19103954499581,5.147117291738222,-1658777.096726936,5104872.343840653,3597158.364305199,-223.5994697333478,-4617.201509423325,6408.363458300929,0.9945448099417752,-2.157203980954096e-06,1.9393163836659055e-05,0.10431021348425114
0.065,8.831194700120535e-06,0.0006379084947353965,-0.007332609533060783,-41.81421813491574,48.189399286353584,5.135155567833291,-1658778.2140525924,5104849.257824731,3597190.4065571185,-223.3307928445458,-4617.204859314308,6408.537309561206,0.994546714097868,-2.3050575717008195e-06,2.1033025169789816e-05,0.10429205640619157
0.07,7.1111089351364844e-06,0.0006581406074546368,-0.007303627252566482,-41.80963884622446,48.17376360137002,5.1284654453313845,-1658779.3300347952,5104826.171791959,3597222.4496782045,-223.06208822238847,-4617.208249645928,6408.711124846194,0.9945486257283225,-2.449807521315662e-06,2.2621359962896573e-05,0.104273824827604
0.075,-1.592923454667953e-05,0.0006389152705813781,-0.007307951282414589,-41.810737574786806,48.18085957566205,5.144292472892817,-1658780.4446735894,5104803.0857422175,3597254.493668192,-222.79342948893733,-4617.211646778005,6408.884870086068,0.9945505294668833,-2.6041068028353554e-06,2.4259551075819505e-05,0.10425566527453162
0.08,1.9098704065176957e-05,0.0006511829314241126,-0.007322081593264221,-41.81522856946139,48.17836468991922,5.141949553536821,-1658781.5579691092,5104779.999675595,3597286.538527106,-222.52477844924803,-4617.215002032343,6409.058695515503,0.9945524339990826,-2.8106824345299835e-06,2.58439355141775e-05,0.10423749493676332
0.085,-7.0470617458966745e-06,0.0006483100692266525,-0.007290789579097888,-41.825009841679865,48.180540895760956,5.132704956332164,-1658782.669921341,5104756.913592195,3597318.584255116,-222.25611420495133,-4617.21835820723,6409.232508504574,0.9945543418778047,-2.933363049816172e-06,2.7467949985843723e-05,0.10421928942817615
0.09,-2.934686831920619e-06,0.0006245061459270735,-0.007287402740031234,-41.82038942051697,48.16772992049461,5.138598796905225,-1658783.7805301158,5104733.827491944,3597350.630852148,-221.98739572442634,-4617.221742220874,6409.406304196154,0.9945562412689937,-3.1203014584248256e-06,2.9078009400985248e-05,0.10420116169037882
0.095,-1.8272070783479098e-05,0.0006594814197631759,-0.007290454318321066,-41.83241481732606,48.17077242001792,5.12375937187068,-1658784.8897954405,5104710.741374863,3597382.6783180996,-221.71873422657657,-4617.225089916136,6409.580076466306,0.9945581394468844,-3.2908136582914955e-06,3.062995426721759e-05,0.10418304233860727
0.1,-1.7894053684955273e-05,0.0006590482915845296,-0.007304285069341861,-41.829264755155904,48.16010383153862,5.141544843893766,-1658785.9977172753,5104687.655240927,3597414.726652834,-221.44999965633698,-4617.228484863023,6409.753817319219,0.9945600380839668,-3.5085704669300273e-06,3.226486671796934e-05,0.10416491536542945
0.105,-3.1517384316174498e-06,0.0006565663184407331,-0.007302238039618618,-41.840613125881276,48.15173256410577,5.132633612839203,-1658787.1042955914,5104664.569090218,3597446.7758563156,-221.1813268011675,-4617.231798466592,6409.927575423451,0.9945619399890687,-3.725275696358606e-06,3.3898800546932184e-05,0.10414675396849261
0.11,2.4305197220630616e-06,0.0006451350130821882,-0.007302587178162144,-41.8315223913489,48.14090327966797,5.137901134981233,-1658788.2095304395,5104641.482922944,3597478.825928437,-220.9126124064307,-4617.235111316364,6410.10127301605,0.9945638410273016,-3.904679163337425e-06,3.5530401604201975e-05,0.10412859762507395
0.115,-1.8511870966870795e-05,0.0006207781144637615,-0.007304730392913545,-41.84489608032445,48.14517321284014,5.145421786364261,-1658789.313421897,5104618.396739155,3597510.8768690126,-220.64397056262519,-4617.238404053238,6410.274957325061,0.9945657418233882,-4.067227065077505e-06,3.7135032920501926e-05,0.10411044037818971
0.12,2.383862184245539e-05,0.00063639727719978,-0.007301734858658485,-41.84913708687304,48.139000869726495,5.129338868387887,-1658790.4159700135,5104595.310539005,3597542.9286780977,-220.3752760330759,-4617.241655910447,6410.448676596129,0.9945676428452737,-4.275507106853222e-06,3.867365205638841e-05,0.10409227776960651
0.125,3.719026957796796e-06,0.0006439209572671303,-0.007312363601554802,-41.85557405632278,48.12934417965278,5.133706184573577,-1658791.5171745997,5104572.224322478,3597574.981355615,-220.10655852073424,-4617.244954992482,6410.622330301937,0.9945695427525658,-4.382550368526386e-06,4.026212789412541e-05,0.10407412256995799
0.13,1.727364959986436e-05,0.0006310813152790467,-0.0073192683871168476,-41.85461721707134,48.129734442922306,5.142763615964211,-1658792.617035598,5104549.13808957,3597607.0349013396,-219.83784079684614,-4617.248208144394,6410.7959596388,0.9945714450898796,-4.5415780903069705e-06,4.186407583651388e-05,0.10405594090969532
0.135,-3.281871400870704e-06,0.0006526191132978931,-0.00731773409533646,-41.8590513001387,48.12815273136369,5.134390293219979,-1658793.715553059,5104526.051840463,3597639.089315301,-219.56914356433816,-4617.251435074501,6410.969624812635,0.994573348889682,-4.663563829071596e-06,4.3437624930712794e-05,0.10403774204483153
0.14,6.139651649778412e-06,0.0006686691777518024,-0.007310456894481141,-41.861880879575416,48.122628937031564,5.133052419566551,-1658794.8127269777,5104502.965575152,3597671.144597524,-219.3004239859262,-4617.254688882825,6411.143264472646,0.9945752519523464,-4.842261192735259e-06,4.505937995292366e-05,0.10401954696176811
0.145,1.0770842591701523e-05,0.0006515410554608341,-0.00731231833478105,-41.856103831129495,48.11528304174093,5.129278468145221,-1658795.9085573014,5104479.87929359,3597703.2007478946,-219.03170546400816,-4617.257936151072,6411.316883679735,0.9945771527856393,-5.001705501918444e-06,4.6723492596684356e-05,0.10400136993669605
0.15,-1.1015812279645043e-06,0.0006724748968125977,-0.007293774608873584,-41.86735245232537,48.108373535013286,5.126902824983594,-1658797.003044132,5104456.792995749,3597735.2577662924,-218.763026714654,-4617.261200043188,6411.49047561891,0.9945790537699714,-5.145181464646457e-06,4.8346221229187314e-05,0.1039831882479017
0.155,-5.981443809791905e-06,0.0006403887473150231,-0.007317506694678114,-41.85651655968502,48.10387530495582,5.137951240126965,-1658798.09618748,5104433.706681647,3597767.31565256,-218.4943125601442,-4617.264440943095,6411.664031368417,0.9945809495967718,-5.3236172633802075e-06,5.00179146530729e-05,0.10396505263332974
0.16,-1.3813788676200678e-05,0.0006229539545126055,-0.007319720012488362,-41.869279049824634,48.10488798762535,5.13178544925807,-1658799.187987448,5104410.620351402,3597799.3744066814,-218.22567457884767,-4617.267656951006,6411.837617156482,0.9945828512613376,-5.5058499782486886e-06,5.1608558723775184e-05,0.10394685797613323
0.165,2.506745016384592e-06,0.0006459265639595709,-0.0073048702690386375,-41.87038387353196,48.095353776241886,5.1308324314234275,-1658800.278444072,5104387.53400506,3597831.4340286916,-217.95697506539076,-4617.270879896483,6412.01118698119,0.9945847531677824,-5.703027036720585e-06,5.315381651266888e-05,0.1039286577818105
0.17,1.861615279144069e-05,0.0006452441820826124,-0.007315377126630889,-41.877450427010274,48.084738400230364,5.124095741193801,-1658801.36755724,5104364.447642637,3597863.494518466,-217.68829212857403,-4617.274089221353,6412.184722620896,0.9945866508782429,-5.865590516200713e-06,5.476043544102727e-05,0.10391049447331942
0.17500000000000002,1.6347056543164127e-05,0.0006561669505632231,-0.007294108811885837,-41.87337109984839,48.08385797854416,5.132291138213243,-1658802.4553269546,5104341.361264182,3597895.5558757684,-217.41959366307708,-4617.277292916006,6412.358198420191,0.994588550983694,-5.987922660694944e-06,5.6369542318436003e-05,0.10389230500270667
0.18,-4.251197918541782e-06,0.0006496406422977488,-0.007332558397904695,-41.87613016459839,48.07673889492146,5.134646752092556,-1658803.5417532658,5104318.274869757,3597927.618100527,-217.15093088166046,-4617.280477309666,6412.531705177872,0.9945904452292107,-6.118730827825608e-06,5.8005219292368624e-05,0.10387416838038323
0.185,2.0214102030005108e-05,0.0006487649986898655,-0.007314383748317099,-41.88131581309314,48.071516549131545,5.1297036373545,-1658804.626836286,5104295.188459471,3597959.681192779,-216.88227709919977,-4617.283637057712,6412.705195389705,0.9945923491250305,-6.2990668491635535e-06,5.961931908261081e-05,0.10385593612216927
0.19,-3.3040426409847683e-06,0.000664426685261204,-0.007295598661000157,-41.883926209161906,48.06994403193366,5.129537586040494,-1658805.7105760002,5104272.102033377,3597991.745152403,-216.61360865374488,-4617.286800321555,6412.878654288593,0.9945942479664862,-6.4183403071442e-06,6.123759403440826e-05,0.10383774901615407
0.195,-6.772289367387114e-06,0.0006355372661948301,-0.007325763416525357,-41.87385716009311,48.0552180387702,5.123665712543519,-1658806.792972363,5104249.015591471,3598023.809979319,-216.3449365122508,-4617.289961868112,6413.0521122337905,0.9945961415942666,-6.600154101305964e-06,6.288870664747285e-05,0.10381960858742571
0.2,1.4914355601087994e-05,0.0006485373391975694,-0.0073133979963873694,-41.88272509126547,48.051617794727846,5.122329545507991,-1658807.8740255397,5104225.929133716,3598055.875673377,-216.0763341139522,-4617.293140295594,6413.225510749762,0.9945980427209026,-6.783098177417674e-06,6.446708529974869e-05,0.1038013931203916
0.20500000000000002,4.479415789881973e-06,0.0006502200021587807,-0.0072939112287567385,-41.88988931697824,48.04082450092006,5.128084927930399,-1658808.9537356305,5104202.842660105,3598087.942234382,-215.80770221837884,-4617.296304137292,6413.398891449754,0.9945999403013351,-6.915490085893778e-06,6.608341651777472e-05,0.10378320836117284
0.21,1.23506850031303e-05,0.0006526860252333557,-0.007288783965024136,-41.88948849208275,48.046401065485384,5.128914516778473,-1658810.0321025627,5104179.756170814,3598120.009662227,-215.5390706809795,-4617.299412485969,6413.572246454878,0.9946018324910927,-7.074261829382222e-06,6.770122456286352e-05,0.10376507202261921
0.215,9.446071167006584e-06,0.0006517562182843774,-0.007311074160033211,-41.89623194398989,48.04382457646867,5.117347418449179,-1658811.1091263322,5104156.669665938,3598152.0779569303,-215.270437110903,-4617.30253771349,6413.745634832865,0.9946037230173764,-7.214100473389106e-06,6.932720636067071e-05,0.1037469483969008
0.22,-1.758192006037269e-06,0.000644208608185755,-0.007315111070007394,-41.88887905623366,48.02697054405013,5.115986227655197,-1658812.1848068463,5104133.583145356,3598184.1471184744,-215.0017685507049,-4617.305695334898,6413.918982744821,0.9946056189912136,-7.3609241660221075e-06,7.09501223975067e-05,0.1037287693120957
0.225,1.0587345075603438e-05,0.0006341401397948747,-0.007299094259617711,-41.89464008715225,48.017381365123924,5.1290160494227655,-1658813.2591441858,5104110.496609013,3598216.217146613,-214.7331672457786,-4617.308841600865,6414.0922728919295,0.9946075156779768,-7.533650869227315e-06,7.255136558654315e-05,0.10371058015663898
0.23,-1.8202239789237314e-05,0.0006434057035756592,-0.0073206549857386585,-41.887419870406966,48.018037476674735,5.11977099393972,-1658814.3321385533,5104087.410057136,3598248.2880412047,-214.46457968332206,-4617.311909358302,6414.265563759631,0.9946094078795651,-7.673066738136348e-06,7.413077452404783e-05,0.10369243079035845
0.23500000000000001,-2.046489529249571e-06,0.0006666173176150953,-0.007306824622054588,-41.900951310639925,48.011142614753474,5.120641428726846,-1658815.4037900441,5104064.323489771,3598280.3598022284,-214.1960166775315,-4617.315036540066,6414.438845699525,0.9946113053333917,-7.886474502207924e-06,7.572575891018668e-05,0.10367422778308884
0.24,-8.47612667618692e-06,0.0006549565425413349,-0.007295500103440048,-41.90086273735544,47.99467640935082,5.112017588881362,-1658816.474098616,5104041.236906871,3598312.4324295893,-213.92741213394999,-4617.318123305057,6414.61209864658,0.9946131988633267,-8.065724031100624e-06,7.738264721516276e-05,0.10365605912695489
0.245,1.3982319926472514e-05,0.0006238515766243517,-0.0072852797866771735,-41.90414188924431,48.00223701899538,5.122732168984748,-1658817.5430642273,5104018.15030853,3598344.505923008,-213.65883230879464,-4617.3212132457675,6414.785268879086,0.9946150891266615,-8.257937096428235e-06,7.900887464338536e-05,0.10363791859627125
0.25,4.244470246586684e-07,0.000635952369718271,-0.007311674941665826,-41.903326275845735,47.988235711724286,5.115838345552272,-1658818.6106869157,5103995.063694802,3598376.580282443,-213.39024302942596,-4617.324278056774,6414.958505024913,0.9946169764156318,-8.38624523077223e-06,8.056357745169354e-05,0.1036198034403048
0.255,-8.502655852209919e-06,0.0006634200486671713,-0.0073021062425310404,-41.89870620630168,47.98446635714794,5.125194966283459,-1658819.6769667217,5103971.977065741,3598408.65550789,-213.12167940709222,-4617.327346343639,6415.131673871467,0.9946188702059328,-8.55140560940665e-06,8.214485665487282e-05,0.1036016226193875
0.26,9.018948860575533e-06,0.0006362768376125035,-0.007284867037965526,-41.9053189259024,47.980069604191165,5.118544903091987,-1658820.7419038217,5103948.890421412,3598440.731599239,-212.85316062995943,-4617.330385280483,6415.3048656340015,0.9946207611775487,-8.74587592282605e-06,8.379212355863583e-05,0.10358346555789363
0.265,-3.273331966390301e-06,0.0006359194477129821,-0.007297808731868944,-41.9159428645956,47.967133488720954,5.118358701491392,-1658821.8054982661,5103925.803761865,3598472.8085564617,-212.5846170617231,-4617.333433364271,6415.478023421957,0.9946226473576851,-8.889745272839663e-06,8.537643517949822e-05,0.1035653513247879
0.27,2.795759838169633e-06,0.0006731504061951976,-0.007294028262798738,-41.902620107713275,47.96425504311159,5.119208220244583,-1658822.8677499453,5103902.717087188,3598504.8863793383,-212.31605460398802,-4617.336437334782,6415.651127224298,0.9946245365554007,-9.064090301388627e-06,8.695667517797891e-05,0.10354720487938528
0.275,-1.547178578748515e-05,0.0006376280041606357,-0.007295115806589832,-41.907841778989706,47.950167222184305,5.121001233968969,-1658823.9286589902,5103879.630397432,3598536.965067759,-212.04756339284128,-4617.339465443176,6415.824241177404,0.9946264244329504,-9.232981240196058e-06,8.863106338876278e-05,0.10352906779746124
0.28,-1.8047164449636355e-05,0.0006394761273022048,-0.007270620311305197,-41.90977687122949,47.94417720718082,5.117161752965899,-1658824.988225604,5103856.543692643,3598569.0446216287,-211.77908211779894,-4617.342450121047,6415.997306646145,0.994628312265977,-9.438101872979475e-06,9.021239469048538e-05,0.10351092798144672
0.28500000000000003,7.473434440774003e-06,0.0006485397729308378,-0.007314160011680318,-41.91532052680488,47.93759049466904,5.12155141488327,-1658826.046449818,5103833.45697292,3598601.125040754,-211.51060346789274,-4617.3454388832215,6416.170343502312,0.9946301934273898,-9.650099091769364e-06,9.179765557947339e-05,0.1034928490411742
0.29,1.0069583402472688e-05,0.0006519830604064444,-0.007293889489291821,-41.904756263066965,47.92502987267626,5.119106104144202,-1658827.1033316338,5103810.370238346,3598633.206325036,-211.24212291108785,-4617.348390470551,6416.343369231338,0.994632085519291,-9.800992460184352e-06,9.341205582503635e-05,0.10347466179540829
0.295,-1.4651356649653938e-05,0.0006315389649961118,-0.007257886039954208,-41.913539998999475,47.921109200562675,5.115155356854754,-1658828.1588712279,5103787.283488992,3598665.2884743446,-210.97371471388198,-4617.351351374007,6416.516354291531,0.9946339720324685,-9.946316291385968e-06,9.503569013548315e-05,0.1034565249184564
0.3,1.6521549600638644e-05,0.0006643182891210734,-0.007281212721716459,-41.90441788497683,47.91796552995084,5.114224273016697,-1658829.213068701,5103764.196724845,3598697.371488513,-210.70527458114137,-4617.3543073777855,6416.689313003629,0.9946358489062547,-1.0147814594571345e-05,9.660209547356554e-05,0.10343847753902395
0.305,1.6315359441477835e-05,0.0006427181976759678,-0.007282585402060157,-41.92004762079289,47.906154045671734,5.1207220175237795,-1658830.2659241003,5103741.1099458635,3598729.4553674757,-210.43688506017884,-4617.357285244842,6416.862272163731,0.9946377314739747,-1.0280280911172837e-05,9.825807010979727e-05,0.10342037211291023
0.31,-8.10316035086863e-06,0.0006427207670862363,-0.0072944526630718855,-41.90655801555155,47.89576094067566,5.118120867397544,-1658831.3174374648,5103718.023152188,3598761.5401111473,-210.168460743894,-4617.360184869547,6417.035196346981,0.9946396140696102,-1.0407675549080934e-05,9.986028070238146e-05,0.10340226323955197
0.315,-1.2313603717614253e-06,0.0006767356107879853,-0.007305350995690713,-41.91450114653219,47.88631188697086,5.114869720477554,-1658832.367608911,5103694.936343962,3598793.6257193647,-209.9001176967369,-4617.363105357956,6417.208090669734,0.9946414993995586,-1.0595792878130294e-05,0.00010145618501634118,0.10338412482857168
0.32,7.756036471085543e-08,0.0006820401713688555,-0.0072977029789660424,-41.90969937511207,47.87956432224974,5.1109118056966345,-1658833.4164385987,5103671.849521181,3598825.7121919384,-209.63175743611,-4617.366007315704,6417.380938878508,0.9946433872038711,-1.0775617011413183e-05,0.00010313844653295836,0.10336595928039878
0.325,-6.911947447428356e-06,0.0006567406108874622,-0.0072721606378240876,-41.90194512153334,47.87027722712198,5.116934713074749,-1658834.4639265703,5103648.762683848,3598857.799528688,-209.36343119234962,-4617.368925927867,6417.553760849433,0.9946452726962033,-1.0953555173159455e-05,0.00010483423683082006,0.1033478127146287
0.33,-7.540205389264644e-06,0.0006262409979415336,-0.007281070968141513,-41.9168468421014,47.86017401958854,5.112376094404831,-1658835.5100730723,5103625.675831977,3598889.8877295316,-209.09516960024072,-4617.37182211565,6417.726576696467,0.9946471512629114,-1.1142330203628818e-05,0.00010646531169662172,0.1033297296307364
0.335,-1.1801522056434543e-05,0.0006638788985169657,-0.007290115128888357,-41.91856649451582,47.853877909706384,5.105754468492287,-1658836.554878144,5103602.5889657,3598921.976794309,-208.82685914681375,-4617.37468906419,6417.899334181343,0.9946490318077542,-1.1324791047513457e-05,0.00010802038310158018,0.10331162435681328
0.34,-1.7061770924948534e-05,0.0006522058266707581,-0.007280795409803005,-41.91363273584704,47.84267612041681,5.104801906979616,-1658837.598341665,5103579.502085051,3598954.06672278,-208.5585492390188,-4617.377570785359,6418.072054196043,0.9946509143456658,-1.1527571697854565e-05,0.00010966794485890746,0.10329349655901836
0.34500000000000003,-1.6573462178391694e-05,0.0006395793382754533,-0.007292164811431382,-41.91070616559295,47.83727966728111,5.107489161930268,-1658838.640463753,5103556.415190005,3598986.157514761,-208.2902858833143,-4617.3804474086655,6418.244738384012,0.9946527941473048,-1.1740415686500332e-05,0.00011128512189543502,0.10327539190312393
0.35000000000000003,1.715952669796372e-07,0.0006465147461334405,-0.0072776685134683435,-41.90834288858134,47.82841154625373,5.108641834781959,-1658839.6812446031,5103533.328280602,3599018.2491701543,-208.02205416560074,-4617.3833137209185,6418.417418743163,0.9946546765552681,-1.1948788576341696e-05,0.00011287102720682848,0.10325725894140712
0.355,-1.8328860016457756e-06,0.0006285445993423516,-0.007261591626905019,-41.91714287520008,47.82981387968703,5.100029318370464,-1658840.7206843782,5103510.241356901,3599050.3416888923,-207.75385592610544,-4617.386166697454,6418.590076422572,0.9946565548871682,-1.2117308825429057e-05,0.00011447850137500541,0.10323916198726828
0.36,3.831201037197145e-05,0.000642986294654465,-0.0072792309327041034,-41.91990700337678,47.804138112873154,5.100015360010126,-1658841.758783043,5103487.154418871,3599082.4350708737,-207.4856099590375,-4617.389045275243,6418.762716283215,0.9946584287436802,-1.2286170838184496e-05,0.00011604077332894252,0.10322110497733708
0.365,8.229113256820826e-06,0.0006363864911342988,-0.00728635535146655,-41.919873204559714,47.80395768251945,5.102309092331292,-1658842.795540577,5103464.067466592,3599114.529315809,-207.21740362362485,-4617.3918661116895,6418.935257623305,0.9946603068179857,-1.2358938534547097e-05,0.00011764931558877428,0.10320300405824345
0.37,2.3603684408420932e-06,0.0006617066990442822,-0.007276461153331483,-41.917155694374166,47.803398777233944,5.108264278955461,-1658843.830957101,5103440.980500217,3599146.624423485,-206.94920597686232,-4617.394684097283,6419.1078127555675,0.9946621863991836,-1.2504811182546753e-05,0.00011923368456931165,0.10318488539778477
0.375,1.5535051076374117e-05,0.0006525379789453398,-0.007302704894320191,-41.91631794798756,47.78179180153484,5.101264196270334,-1658844.865032702,5103417.893519782,3599178.720393998,-206.68103440762772,-4617.397489502075,6419.280392650575,0.9946640630881016,-1.2671806080318362e-05,0.00012087950253833045,0.10316679130728176
0.38,-3.4287305437499022e-06,0.0006458034027083047,-0.007266707209086916,-41.91404854457738,47.77259614145106,5.09208728474271,-1658845.8977675436,5103394.806525355,3599210.817227165,-206.41290223395006,-4617.400281395704,6419.452874094883,0.9946659462158873,-1.2803683177692495e-05,0.0001225059181188563,0.10314863191928114
0.385,6.0931027875649805e-06,0.0006494588106602323,-0.007273946617103893,-41.91523882703425,47.7636636518365,5.0945456433787175,-1658846.9291617752,5103371.719516903,3599242.9149226067,-206.1447904804617,-4617.403099688204,6419.625302598556,0.9946678197298265,-1.2980969159620598e-05,0.0001241106979562488,0.10313056201700002
0.39,5.017893493795017e-07,0.0006412529718183014,-0.007280218990354072,-41.91822737648384,47.76049286055178,5.0982886323844605,-1658847.9592154967,5103348.632494424,3599275.0134801352,-205.87669806077852,-4617.405891982,6419.797708769476,0.9946696947782449,-1.313552219113764e-05,0.0001257270222890796,0.10311247407528977
0.395,5.497536211074733e-06,0.000638503729881275,-0.007284349545690291,-41.926785828501544,47.748509312978655,5.0954030048254335,-1658848.987928762,5103325.545458037,3599307.112899702,-205.60860808645126,-4617.408662674001,6419.970118062213,0.9946715711141586,-1.3301865654007323e-05,0.00012732149979054848,0.10309437050386142
0.4,3.7828696469182502e-06,0.0006424090238913069,-0.007263464706266629,-41.91471308084095,47.72903429181356,5.089043094419867,-1658850.01530154,5103302.458407865,3599339.213181176,-205.34050316980563,-4617.4114063010675,6420.142471455749,0.9946734481834788,-1.345507903034123e-05,0.00012891042821358364,0.10307625662513512
0.405,-1.1982908976968575e-06,0.000653916773237536,-0.007279350849546625,-41.91181019486644,47.72111130578435,5.100773423365369,-1658851.0413340102,5103279.371343944,3599371.3143242206,-205.07248485574925,-4617.414161904747,6420.314746370191,0.9946753195381799,-1.3613555862483717e-05,0.0001305086266732981,0.10305819464646805
0.41000000000000003,-9.040954454711185e-06,0.0006613632823815846,-0.007264467713963784,-41.91430845393257,47.715233196538684,5.090395593944201,-1658852.0660265079,5103256.284266375,3599403.4163286677,-204.80451423688987,-4617.416865681754,6420.487032445391,0.9946771946506385,-1.3787389386609848e-05,0.00013213415736098558,0.10304009313082071
0.41500000000000004,1.1877745743086725e-05,0.0006406907861143404,-0.00726185000534561,-41.9076638197142,47.70091979339977,5.0973302459487035,-1658853.0893791313,5103233.197175215,3599435.519194428,-204.53653507721447,-4617.419598343955,6420.659271593159,0.9946790655950335,-1.398263850866814e-05,0.0001337761854277484,0.1030220285929626
0.42,-2.3702990124788986e-05,0.0006473209581677711,-0.0072867721635373325,-41.90550774004945,47.701793909937386,5.092835456397382,-1658854.1113920335,5103210.110070491,3599467.622921321,-204.26862584772584,-4617.422291172637,6420.83148574391,0.9946809355422781,-1.4120543961441127e-05,0.00013537219501070694,0.10300397052404058
0.425,2.3193329425228e-05,0.0006349084729022106,-0.007288053552828113,-41.911655629991024,47.687021975679926,5.089377408927614,-1658855.1320654086,5103187.022952227,3599499.727509287,-204.00072415080732,-4617.425014690765,6421.00370074207,0.9946828115721811,-1.4348643878133725e-05,0.00013697552854043772,0.102985850458604
0.43,-6.561610030268853e-06,0.0006364464018665573,-0.007248444776582641,-41.90004013721914,47.67317846921183,5.091844727617145,-1658856.1513992755,5103163.93582041,3599531.8329581614,-203.7328226209259,-4617.427712005528,6421.175848970072,0.9946846876052202,-1.4456931045507469e-05,0.00013856006990741113,0.10296772715666629
0.435,-1.7122393809476626e-05,0.0006254255088683961,-0.0072640297407665574,-41.90366474719718,47.66247767432635,5.092458697794458,-1658857.1693938489,5103140.848675134,3599563.9392676987,-203.46500670186603,-4617.430398405068,6421.347965853454,0.9946865531096541,-1.4639592336846973e-05,0.00014014077754959922,0.10294970232633066
0.44,-8.542700664224112e-06,0.0006508780995506898,-0.007250604781878204,-41.91369227364683,47.661024481306725,5.0838370933347665,-1658858.1860493657,5103117.761516496,3599596.046437728,-203.19720002658892,-4617.433057001582,6421.520045972481,0.9946884222989223,-1.484568426345179e-05,0.00014169136066589206,0.10293163871057755
0.445,5.2045878139461085e-06,0.0006441097568501051,-0.007253939857940505,-41.916631496037674,47.647762399085195,5.0905718856001405,-1658859.2013657289,5103094.674344522,3599628.1544680824,-202.92934525964318,-4617.435732198769,6421.6920955975875,0.9946902876948955,-1.5036985818222423e-05,0.0001433074455312945,0.10291360844082334
0.45,-7.272258341593433e-06,0.0006401120065059795,-0.007269453985143662,-41.90436949825012,47.63632155967163,5.091586310870815,-1658860.2153428802,5103071.587159314,3599660.2633586107,-202.66151531327327,-4617.438351012374,6421.864115774126,0.9946921536222894,-1.5192361440592372e-05,0.00014491023616963045,0.10289556983887928
0.455,-7.090868396249207e-06,0.0006491739696536075,-0.00727415664195979,-41.89952155723135,47.63022810098223,5.084566055747697,-1658861.2279810875,5103048.499961008,3599692.3731091768,-202.39376760126498,-4617.440971429635,6422.036110789392,0.9946940232111038,-1.5377740853744938e-05,0.00014649987531285683,0.10287749262797849
0.46,-6.90949557417572e-06,0.0006352029635395662,-0.007242421040037363,-41.906108854040426,47.612781399899816,5.086343440903707,-1658862.2392806287,5103025.412749524,3599724.483719638,-202.12604890161583,-4617.443622118999,6422.208073591751,0.9946958936747751,-1.556500159549885e-05,0.0001481120955803044,0.10285940368813354
0.465,1.2734716431974706e-05,0.0006349084536734314,-0.007239184220087819,-41.89274185209719,47.59757209424495,5.083611139737379,-1658863.249241601,5103002.3255249215,3599756.5951897544,-201.8583399487835,-4617.446218906981,6422.379973034169,0.9946977556527772,-1.5748206930623318e-05,0.0001496896214172364,0.10284139363281383
0.47000000000000003,6.229568310156706e-06,0.000638318873782622,-0.007263162632294911,-41.902500892911696,47.58957307369497,5.080783550184625,-1658864.2578642513,5102979.23828731,3599788.707519243,-201.59072020423358,-4617.448825722403,6422.551822449718,0.9946996164710119,-1.5882485195755983e-05,0.00015127146555676718,0.1028233915853396
0.47500000000000003,-1.6984178433477922e-05,0.0006489357310688977,-0.007266491543708654,-41.89738435693001,47.58432362695736,5.087759976992666,-1658865.265148734,5102956.151036716,3599820.8207078776,-201.32307288650287,-4617.451411819861,6422.723631240556,0.9947014831221518,-1.6033825872014667e-05,0.00015286011734956515,0.10280532987784581
0.48,-7.521532115048381e-07,0.0006294018646086681,-0.007259929703895512,-41.894177471707586,47.57012467514736,5.078801115862961,-1658866.2710950966,5102933.063773248,3599852.934755582,-201.0554721875962,-4617.453975476606,6422.895450601872,0.9947033502931888,-1.6245623359655887e-05,0.00015446920422509854,0.1027872598664371
0.485,6.507716151454534e-06,0.0006413071641699152,-0.007265237743659767,-41.89681186657691,47.56410995445221,5.077302319093935,-1658867.2757035405,5102909.976496922,3599885.0496622035,-200.78790539147028,-4617.456555124622,6423.067198039224,0.9947052154557358,-1.6412033601702304e-05,0.00015603388642326818,0.10276920613311047
0.49,-1.4575442927236536e-05,0.0006230767227093708,-0.007262058978036596,-41.89717376381457,47.54862860295628,5.0827069984531645,-1658868.2789741566,5102886.889207713,3599917.1654275055,-200.52034101936965,-4617.459128049072,6423.238922664196,0.9947070816472726,-1.6563451079550123e-05,0.0001576300392382555,0.1027511391624884
0.495,-2.095752956038542e-05,0.0006560441286871797,-0.007262184680628193,-41.89243619529001,47.533968804150376,5.0726583499660265,-1658869.2809070474,5102863.801905768,3599949.2820513304,-200.25281531715385,-4617.461650050666,6423.410607308845,0.9947089466980717,-1.676261322174752e-05,0.0001591754414629141,0.10273308007164186
0.5,-1.6773614352465202e-05,0.0006367728698665564,-0.0072497661353781995,-41.89316920082476,47.52201082140448,5.073621726027478,-1658870.2815024103,5102840.714591158,3599981.3995333896,-199.9853297885621,-4617.464194440476,6423.582216383952,0.9947108114373512,-1.698611331297341e-05,0.00016080118693507202,0.10271502063523437
0.505,-7.37303299760309e-08,0.0006105203236514257,-0.007255022383223599,-41.89271303135768,47.5116454537048,5.082508994387071,-1658871.2807604077,5102817.62726389,3600013.517873398,-199.7178691539435,-4617.466712717152,6423.75378703005,0.9947126726657098,-1.7194255322674497e-05,0.00016238008393485278,0.10269699204604864
0.51,-1.9671044670746084e-05,0.0006496549938547626,-0.007227397330761962,-41.88267198388822,47.50842071341527,5.0814299476991645,-1658872.2786811956,5102794.539924158,3600045.637071238,-199.45044598776056,-4617.469179733737,6423.92534884961,0.9947145349255314,-1.7354130350965783e-05,0.00016389798387353487,0.1026789503460615
0.515,3.615459083992772e-06,0.0006214241463408998,-0.0072413906033946054,-41.88848943722044,47.490388213375205,5.078094943980141,-1658873.275265004,5102771.452572032,3600077.7571268873,-199.18307745222646,-4617.471670830733,6424.096911054597,0.9947163897487286,-1.7572774154992285e-05,0.00016550817394062636,0.10266097731610428
0.52,-7.048855483325522e-06,0.0006502390382718273,-0.007251880822540543,-41.882780573266565,47.47348735902044,5.074992927265823,-1658874.270511989,5102748.365207533,3600109.87804015,-198.91571653270086,-4617.474128368284,6424.268393818821,0.9947182478481489,-1.7726269559882786e-05,0.0001670541356597002,0.10264296944556778
0.525,-2.4520006891140456e-06,0.0006613970063601836,-0.007257633798553875,-41.877591967009536,47.46799729711702,5.065776219904759,-1658875.264422313,5102725.277830768,3600141.9998106644,-198.64841309000425,-4617.476577734977,6424.439812142579,0.9947201082979383,-1.7913683425925928e-05,0.00016866901706338652,0.10262493545722905
0.53,-1.4574317991304752e-05,0.0006390865395740063,-0.007250852928212329,-41.874308688366696,47.45919548717792,5.062792759102491,-1658876.2569961865,5102702.190441654,3600174.122438182,-198.38113623275544,-4617.479068061564,6424.611194810837,0.9947219698893413,-1.8092530966534028e-05,0.00017031282517137165,0.10260688712591587
0.535,3.6120311244031353e-06,0.0006373101268430984,-0.007242545505247112,-41.87946083566401,47.45501104263415,5.072913651882638,-1658877.2482337556,5102679.103040076,3600206.2459225296,-198.1138914467225,-4617.481563274661,6424.782544217383,0.9947238294204908,-1.8295798433471187e-05,0.0001718980421678165,0.10258885562945633
0.54,-7.5000618451549824e-06,0.0006416448434714763,-0.007247558723961633,-41.87569759740505,47.4484095218704,5.063905244410868,-1658878.2381351076,5102656.015626155,3600238.3702636617,-197.84664935439136,-4617.48400495815,6424.953908584784,0.994725686493595,-1.8453380736827168e-05,0.00017348350617905493,0.10257084475030885
0.545,3.157965614015422e-05,0.000659665447177239,-0.007240377225358084,-41.86672723328573,47.41915006124298,5.060817453242082,-1658879.2267003052,5102632.928199939,3600270.4954615133,-197.57942973835387,-4617.48648129247,6425.125232148158,0.9947275445209522,-1.8639710457991177e-05,0.00017507690009468585,0.10255282137492494
0.55,6.289071844919566e-06,0.0006515690235225883,-0.007250592789115423,-41.86381125868378,47.41389557349408,5.065808900244059,-1658880.2139296413,5102609.840761417,3600302.6215157034,-197.31230465903235,-4617.488927819955,6425.296443915793,0.9947294003721598,-1.873347300931407e-05,0.00017672512760261508,0.10253481580677665
0.555,1.760343325826648e-05,0.0006492269559633461,-0.007248729252126043,-41.86853354679625,47.391709955493994,5.051776757667551,-1658881.1998234375,5102586.753310709,3600334.7484259605,-197.04521378098514,-4617.491355104095,6425.4676587992435,0.9947312585153344,-1.8888057873912124e-05,0.00017834673728352914,0.10251678481195906
0.56,1.4101516044200188e-05,0.0006422534759954818,-0.007239881677479112,-41.8652947159765,47.383956575917246,5.056303368613357,-1658882.1843817949,5102563.665847862,3600366.8761919783,-196.7781292325689,-4617.49378372054,6425.638748436208,0.9947331158530928,-1.901390477585708e-05,0.00017996542245374302,0.10249875841255726
0.5650000000000001,-3.0247098018647066e-06,0.0006529857471635403,-0.007225086346521426,-41.86275906549962,47.37048929855324,5.058916934654437,-1658883.1676048287,5102540.578372928,3600399.004813425,-196.51108426367958,-4617.496189898693,6425.809830013394,0.9947349705977921,-1.9146669440830372e-05,0.0001815658687509693,0.10248075398361435
0.5700000000000001,4.938076389486985e-06,0.0006304151375718668,-0.007227991410996701,-41.858366605198,47.355706596348725,5.064174379555678,-1658884.1494927485,5102517.490886037,3600431.1342901858,-196.24408363262694,-4617.498566656947,6425.980874383005,0.9947368212183909,-1.9324767151185035e-05,0.0001831886173388305,0.10246278632174154
0.5750000000000001,-1.4170218388130872e-06,0.0006254281557676486,-0.0072330183135919214,-41.85777108176066,47.35172766275791,5.0533261244034415,-1658885.1300458112,5102494.403387359,3600463.2646220843,-195.97714141893977,-4617.50090437414,6426.151885146514,0.9947386722666277,-1.947728237518966e-05,0.0001847572759081371,0.102444811399169
0.58,1.4748725332990088e-05,0.0006425082209882822,-0.007242022257382192,-41.848000969410265,47.334040968321965,5.05709047368706,-1658886.1092641654,5102471.31587689,3600495.395808942,-195.7102003424481,-4617.503283457751,6426.322857898963,0.994740524276825,-1.9644326843580795e-05,0.0001863119046955986,0.10242682394491218
0.585,-4.666767101411493e-06,0.0006504147599411867,-0.00722056590975739,-41.84719329844627,47.315341201743266,5.052278281794469,-1658887.0871480291,5102448.2283545965,3600527.5278505506,-195.4433451142171,-4617.50563381899,6426.49378561046,0.9947423782573104,-1.9775547331890632e-05,0.00018791314807733143,0.102408814057027
0.59,-3.251595273151158e-06,0.0006801039697378209,-0.00724078463817114,-41.85188139547112,47.30667971277702,5.052315466276387,-1658888.063697708,5102425.140820591,3600559.6607465963,-195.17652644344835,-4617.5079684933735,6426.664632652051,0.9947442264121196,-1.9957065514852568e-05,0.0001895290840874538,0.10239085750298041
0.595,-4.670397208082389e-06,0.0006408660646831208,-0.007244077897892506,-41.84541367170426,47.301241816726375,5.054849518485532,-1658889.0389132933,5102402.05327497,3600591.7944968,-194.9097076949515,-4617.510280031712,6426.835448657083,0.9947460794006615,-2.0142673695435682e-05,0.0001912192142030721,0.10237285063188231
0.6,1.4382654118895372e-05,0.0006288982976051201,-0.0072156517006780165,-41.84463493820155,47.28097204432899,5.052170570090219,-1658890.0127949032,5102378.965717797,3600623.9291010792,-194.64293621354733,-4617.512588899042,6427.00626313686,0.9947479329219182,-2.0321769572369437e-05,0.0001928114015921096,0.10235483553970513
0.605,5.58026479381329e-06,0.0006244172717594668,-0.007210443418652342,-41.843308443874506,47.273880868915015,5.047944467826188,-1658890.9853427606,5102355.87814915,3600656.0645592283,-194.37620672530025,-4617.514870033827,6427.176996502008,0.9947497788485291,-2.0450406884746062e-05,0.00019437870351278044,0.10233689109750742
0.61,7.234106762243394e-06,0.0006287351500016908,-0.007217175648727361,-41.83598007289137,47.2509694282388,5.0399269739099894,-1658891.9565570168,5102332.790569073,3600688.2008709656,-194.10949576887063,-4617.5171607838065,6427.347698343289,0.9947516231184586,-2.059978566092235e-05,0.00019593260986447994,0.10231895957863107
0.615,2.4315747408594106e-06,0.0006386050568901431,-0.0072386023896436735,-41.82634448050244,47.24328503793589,5.048088434362153,-1658892.9264378913,5102309.70297754,3600720.3380359584,-193.84285405183886,-4617.519452224604,6427.518298897653,0.9947534687824667,-2.0746159325076848e-05,0.0001974976768947137,0.10230101128295045
0.62,-9.294413841727093e-06,0.0006340112482093226,-0.007216812538486352,-41.830146469868076,47.21974821612047,5.0408844819459215,-1658893.894985739,5102286.615374609,3600752.4760539737,-193.5762850443805,-4617.521720181229,6427.688907154784,0.9947553195939967,-2.0907011153837116e-05,0.00019908605979923654,0.10228300966965746
0.625,8.232837720161677e-07,0.0006413360636044759,-0.007214458259010109,-41.82406694986754,47.21850584990544,5.046957505307023,-1658894.8622007957,5102263.527760405,3600784.6149247526,-193.30973760961007,-4617.523961324007,6427.859404514257,0.9947571645080667,-2.1095838682938575e-05,0.0002006600210645912,0.10226506221771242
0.63,1.1010318852166114e-05,0.0006063389211510502,-0.007255162047826621,-41.813868830043575,47.20650427500869,5.0289371943933165,-1658895.828083221,5102240.440135015,3600816.7546480815,-193.04323258481705,-4617.52619465859,6428.029926874232,0.9947590084908635,-2.1261376075375253e-05,0.00020225478513722508,0.10224712058160866
0.635,1.1105579432040024e-06,0.0006162259736584855,-0.0072346001005118244,-41.818840430507365,47.18555817012844,5.040209661945603,-1658896.7926332452,5102217.352498282,3600848.895223815,-192.77677702868297,-4617.528498964041,6428.20036666954,0.9947608625686601,-2.1392654037249575e-05,0.00020376511666035028,0.10222907768236428
0.64,3.0992633598173153e-07,0.0006346413394820489,-0.007218882894410072,-41.811227132575254,47.18356652361842,5.040779533030399,-1658897.7558510797,5102194.264850266,3600881.036651624,-192.51035679459525,-4617.530707182651,6428.3707567612255,0.994762711057161,-2.1551068114932274e-05,0.00020529750723947377,0.10221108588940994
0.645,2.268619620349961e-06,0.0006409398237910133,-0.007229746526724167,-41.81298636525298,47.16507227294686,5.045718187377918,-1658898.717736922,5102171.177191171,3600913.1789314025,-192.24398014630293,-4617.5329307360835,6428.541154722239,0.9947645551928507,-2.171617085128588e-05,0.0002068754913124025,0.10219313314948794
0.65,2.290350514144038e-05,0.0006344671916189976,-0.007220969516367538,-41.794475064834394,47.14907577081184,5.0316652450067485,-1658899.6782909739,5102148.089521106,3600945.322063034,-191.97764061372672,-4617.5350953318475,6428.7114978949685,0.9947664017738472,-2.187801725703013e-05,0.00020846963891239548,0.10217515335772565
0.655,-1.4599199490229662e-05,0.0006434365303791362,-0.007217438240075749,-41.802241902935734,47.135798185032776,5.0289062255414665,-1658900.6375135758,5102125.00184006,3600977.4660461796,-191.71140011991105,-4617.537323200586,6428.881760382709,0.9947682457902561,-2.198688849871399e-05,0.00021005296096283975,0.10215719534965227
0.66,-2.6635324503193367e-06,0.0006378592825864778,-0.007210383361837443,-41.79328707047806,47.115313409186335,5.0365970636149635,-1658901.5954049523,5102101.914147947,3601009.610880487,-191.4451504978604,-4617.539522023845,6429.051962685414,0.994770088571463,-2.2191314834265217e-05,0.00021164901124408333,0.1021392461092469
0.665,1.2161410399941266e-05,0.0006376085060268384,-0.007215627656035939,-41.779665816254195,47.104140912865134,5.027560860807762,-1658902.5519653114,5102078.82644497,3601041.756565691,-191.17899310978618,-4617.541668499032,6429.22211882022,0.9947719292287285,-2.236463017853846e-05,0.0002132342393992194,0.10212131437430698
0.67,-1.6725307964823324e-05,0.0006411391333966637,-0.00719186825535039,-41.78789791302537,47.088922616543066,5.0395799698636194,-1658903.5071950704,5102055.7387311505,3601073.9031015476,-190.91291052015174,-4617.54385944739,6429.392223724957,0.9947737708998415,-2.2501015694565812e-05,0.00021482262838417657,0.10210336955581986
0.675,-8.131316610881674e-06,0.0006411946984999179,-0.0072194653969012545,-41.7873840394405,47.076654360936075,5.027338513943506,-1658904.4610944446,5102032.651006607,3601106.0504878606,-190.64683917327696,-4617.545957700872,6429.562301489497,0.99477560617746,-2.271012903986057e-05,0.00021641242549599133,0.10208548380734248
0.68,-2.8354320049032205e-05,0.0006542679142628623,-0.007191423944789089,-41.77701077598646,47.06106550303256,5.029468501190346,-1658905.413663497,5102009.563271505,3601138.1987243732,-190.38078175389347,-4617.548083607679,6429.7323035621075,0.9947774481733321,-2.289789875722132e-05,0.00021800455246161998,0.10206752938841394
0.685,-1.236725027106367e-05,0.0006179836545927704,-0.007211703468376996,-41.76960263535279,47.0465123116688,5.028249432856972,-1658906.3649024686,5101986.475525812,3601170.3478107946,-190.11480690454312,-4617.5501931932085,6429.902264972105,0.9947792826802091,-2.3139282530651042e-05,0.00021962403303170638,0.10204964468388128
0.6900000000000001,6.684896475875686e-06,0.0006285562310099301,-0.007194212369580828,-41.76442410341466,47.02763019443979,5.0171650178211555,-1658907.3148117238,5101963.387769589,3601202.497746902,-189.84889514374484,-4617.552295916304,6430.072178029163,0.9947811220567584,-2.3331661427166293e-05,0.00022115735396937555,0.10203170950520776
0.6950000000000001,-2.657530245352029e-05,0.0006443559972069135,-0.007169506245019666,-41.771442805630706,47.01631338148932,5.019306303608097,-1658908.2633915409,5101940.30000281,3601234.648532336,-189.58303166874282,-4617.5544161943135,6430.241995707163,0.9947829566419664,-2.3479345700668172e-05,0.00022272182916136722,0.1020138177815877
0.7000000000000001,3.3792823535659055e-06,0.0006266809922233062,-0.007216718753665939,-41.75990101595893,47.00541724078632,5.0089895225074175,-1658909.2106420328,5101917.212225533,3601266.8001667643,-189.31716509050813,-4617.556494120258,6430.4117754457875,0.9947847845922996,-2.3713762393802093e-05,0.00022431711657685006,0.10199598748549395
0.705,2.9573077485601444e-06,0.000634092446966932,-0.00719808149523293,-41.75247870937151,46.99643004621526,5.020558987396038,-1658910.15656335,5101894.124437753,3601298.952649952,-189.05136179685908,-4617.558617884953,6430.581499671167,0.9947866242688255,-2.3869202693687733e-05,0.000225876082173841,0.10197803972469498
0.71,9.454069328742186e-06,0.0006611897641676307,-0.007194819657146782,-41.75324568776826,46.97197182197495,5.019607058216991,-1658911.1011558243,5101871.036639466,3601331.105981786,-188.78562798647496,-4617.560697162383,6430.751233924706,0.9947884588642182,-2.402757141228482e-05,0.00022745337326883288,0.10196013828056841
0.715,-1.0130611813717169e-05,0.0006409765793977597,-0.007191994526612023,-41.75266063829743,46.95247282049582,5.011673791455819,-1658912.0444197415,5101847.948830901,3601363.2601620546,-188.51993890400897,-4617.562729021248,6430.920873501283,0.994790292288546,-2.417668812517742e-05,0.00022909971075835327,0.10194224490994706
0.72,3.0442514576553456e-07,0.000632924818077667,-0.0072131290227118745,-41.74243089517426,46.93762913031349,5.008447978390146,-1658912.9863552956,5101824.861012191,3601395.415190289,-188.2542826742713,-4617.564755079786,6431.090420158287,0.9947921246789079,-2.4369358395204505e-05,0.00023069078737806612,0.10192435854455659
0.725,-1.6562219812585324e-06,0.0006319347169013314,-0.007193691992894685,-41.739178787813465,46.92442397084176,5.01068523041354,-1658913.9269627526,5101801.773183335,3601427.5710661244,-187.98870010147613,-4617.5667872872,6431.259914022703,0.9947939621347834,-2.453403743811514e-05,0.00023226449702405536,0.10190641957925721
0.73,1.20730773557664e-05,0.0006141916127051421,-0.007195716285302853,-41.72610631718422,46.910555483189775,5.000645920173281,-1658914.8662424127,5101778.685344382,3601459.7277893373,-187.72316397534303,-4617.568793545602,6431.429371185665,0.9947957943141122,-2.4703329042326254e-05,0.00023383524591330903,0.10188852892145303
0.735,-2.0283908048406065e-05,0.0006484656131258743,-0.007177967340845749,-41.73308531528291,46.90584772865406,5.0149818754629925,-1658915.804194582,5101755.597495296,3601491.8853596724,-187.4577037307155,-4617.570840873347,6431.59876284002,0.9947976266960374,-2.4833957651802277e-05,0.00023536536483302967,0.10187063318911407
0.74,3.049078098691602e-05,0.0006152259991567161,-0.00718420620998239,-41.72333639464453,46.890160074951304,5.012458472393286,-1658916.7408194519,5101732.509636162,3601524.043777023,-187.19224421123724,-4617.572813000276,6431.768177506861,0.9947994542119263,-2.5053776225508155e-05,0.0002369724834473323,0.10185278158206633
0.745,2.1014873382673084e-05,0.000616964968623294,-0.007185875743300981,-41.723118886733396,46.872278634876544,5.003273797215972,-1658917.6761172088,5101709.421767165,3601556.2030413104,-186.92685860050184,-4617.574785565339,6431.937537487063,0.9948012830161909,-2.513885803697931e-05,0.00023850986357759542,0.10183491439787906
0.75,6.980718423925907e-06,0.0006496940544462928,-0.0071943424723509355,-41.71633279372478,46.84793053113794,4.9973041627970725,-1658918.6100881044,5101686.333888301,3601588.3631521724,-186.66149961679335,-4617.5767602003725,6432.106807266263,0.9948031119205231,-2.5247950167902916e-05,0.00024004915590245142,0.10181704303399843
0.755,-5.41090966466951e-06,0.0006342829272488225,-0.007160935077217916,-41.70762533457567,46.83966566241379,5.0002426151234705,-1658919.5427323848,5101663.245999593,3601620.5241091284,-186.39621251303606,-4617.578722914999,6432.275975088186,0.9948049426355428,-2.5400281371093228e-05,0.00024166627281538844,0.10179915058649941
0.76,-3.133689868840049e-06,0.000634447723850356,-0.007176357471623399,-41.704240395323765,46.827781747589185,4.999337929943831,-1658920.4740503866,5101640.158101087,3601652.685911898,-186.13098823722476,-4617.580679385199,6432.4451327769275,0.9948067645340926,-2.557948841546597e-05,0.0002432419104644808,0.10178134119902929
0.765,1.1159903535158795e-05,0.0006128932616927586,-0.007191842687940441,-41.700120312649986,46.808686129852866,4.996581061087838,-1658921.4040423685,5101617.070192825,3601684.848560356,-185.86580452040036,-4617.582625526046,6432.614250379852,0.994808590034949,-2.5753083278897168e-05,0.0002448185363467403,0.10176349342146156
0.77,-3.2928833567441502e-06,0.0006270184648309295,-0.007166132473953587,-41.69022876107505,46.79052012551293,4.998250490696366,-1658922.332708568,5101593.982274877,3601717.012054217,-185.60067533376042,-4617.5845536337065,6432.783294074299,0.9948104191661763,-2.5885655494455837e-05,0.0002463451911571812,0.10174560709139421
0.775,-1.7762843248890094e-05,0.0006128188617265763,-0.007173870127559587,-41.69084741357125,46.77140155013174,4.997278493158085,-1658923.2600493329,5101570.894347342,3601749.1763931643,-185.33563054087563,-4617.586460257717,6432.952284854945,0.9948122414251843,-2.6057749268530898e-05,0.000247903301030688,0.10172778467826755
0.78,-2.2537862411948713e-05,0.0006279186716370616,-0.0071663395403078365,-41.689744870117686,46.759122086955806,5.002338682632232,-1658924.1860649625,5101547.806410361,3601781.341576883,-185.07062135413506,-4617.5883320202265,6433.121202634597,0.9948140653378562,-2.6262223827307312e-05,0.00024942241547999455,0.10170994299832227
0.785,6.8550683504382375e-06,0.0006379721429035112,-0.007182404596096495,-41.682493625330935,46.74101590970315,4.992371575254469,-1658925.110755643,5101524.71846412,3601813.5076051233,-184.8056508481582,-4617.590164381864,6433.290093476156,0.9948158870039154,-2.64824088244212e-05,0.0002509778699338696,0.10169212001627248
0.79,-2.609872895320894e-05,0.0006193282350667019,-0.0071722427365085535,-41.68089361645117,46.725355958625144,4.991254996139711,-1658926.0341216146,5101501.63050867,3601845.674477599,-184.54073782722494,-4617.592015825301,6433.45889684971,0.9948177124273135,-2.6632058403680067e-05,0.0002525657991987167,0.10167425702771388
0.795,-1.807016224979417e-06,0.0006323328238159559,-0.007175088032487525,-41.669924313382715,46.70956485243944,4.9856454335281954,-1658926.956163119,5101478.542544017,3601877.842193948,-184.27586391901414,-4617.593845446717,6433.627642739878,0.9948195349545367,-2.685892009738247e-05,0.00025409898445169846,0.10165641930121218
0.8,-2.086833836216183e-05,0.0006369074842417321,-0.007181876513843316,-41.65804072557952,46.68942843878749,4.987198609575227,-1658927.8768804427,5101455.454570178,3601910.0107538695,-184.01106555474288,-4617.595689922983,6433.796325850239,0.9948213578758308,-2.7028673913764527e-05,0.00025567068599994126,0.10163857444907066
0.805,-1.2154395672434349e-05,0.0006182393379324787,-0.007156941283907954,-41.65003346453695,46.67808709210225,4.9909645659286355,-1658928.7962740164,5101432.366587171,3601942.1801570575,-183.74636389044235,-4617.597512907656,6433.964949355476,0.9948231821949379,-2.7247000991251726e-05,0.0002572489210172057,0.10162071269249766
0.81,-1.8856664879439042e-05,0.0006391195029263108,-0.0071409118454560105,-41.64968264716625,46.67039593568315,4.988436728413288,-1658929.7143442472,5101409.278595095,3601974.3504033107,-183.48172848995347,-4617.599317895663,6434.133551898646,0.994824999869763,-2.743889726719874e-05,0.00025878294268059595,0.10160291291405771
0.8150000000000001,-2.3429942297398863e-08,0.0006388999404241532,-0.0071592434786653635,-41.65171042531723,46.6437649256719,4.989613415559499,-1658930.6310913444,5101386.190593993,3602006.5214925013,-183.21711034164773,-4617.601122320328,6434.302124257587,0.994826813138799,-2.7652755840313744e-05,0.0002603671932104167,0.10158515297203155
0.8200000000000001,-6.815625812070038e-06,0.0006247823781508177,-0.007141399357766665,-41.64592137899446,46.63286836618783,4.980982696243041,-1658931.5465154648,5101363.10258403,3602038.693424307,-182.95253776180743,-4617.602863263308,6434.470597904962,0.9948286307444241,-2.7819731058445797e-05,0.000261955679265048,0.10156734739304286
0.8250000000000001,9.36500069257156e-06,0.0006172520110169256,-0.007152377542353796,-41.62674007573017,46.60686399844118,4.970890996457395,-1658932.460616821,5101340.014565293,3602070.866198341,-182.68800477469938,-4617.604631482471,6434.639015856314,0.9948304435074972,-2.80000025506176e-05,0.0002635073304252094,0.1015495861663813
0.8300000000000001,-6.989844413645051e-06,0.0006477472959637297,-0.007148051907868195,-41.6162872942865,46.58400932352126,4.971277410954431,-1658933.373395825,5101316.926537651,3602103.0398141905,-182.4235968062233,-4617.606425593811,6434.807323856216,0.9948322587437529,-2.8138127052100225e-05,0.0002650443599757656,0.10153179759334371
0.835,1.1154226912146332e-05,0.0006230539214967503,-0.007131137988445293,-41.61720776032677,46.57142128993186,4.976390706087044,-1658934.2848530232,5101293.838501102,3602135.2142713917,-182.1592824949232,-4617.608193599027,6434.975556704665,0.9948340725403053,-2.8324665099798842e-05,0.00026665308263620625,0.10151401975450265
0.84,-7.75499669212358e-06,0.000638643357679314,-0.007143376269919725,-41.608951097529555,46.553853393189854,4.963197832363456,-1658935.1949887255,5101270.750455826,3602167.389569683,-181.89499838013154,-4617.609917042851,6435.143759794975,0.9948358817426513,-2.8459799202846514e-05,0.0002682049965770509,0.1014962839390757
0.845,-3.7297329710296485e-05,0.0006321304596989191,-0.00715145225065757,-41.606803563257834,46.53364232296244,4.974506013607458,-1658936.103803149,5101247.662401845,3602199.565708756,-181.6307710799189,-4617.611675476419,6435.311869363357,0.9948376937193397,-2.864592611261267e-05,0.0002697908838474966,0.10147851766494782
0.85,-4.065923590663558e-06,0.0006270481280233831,-0.007140888146062001,-41.599032139680844,46.51912127331973,4.976748188492323,-1658937.0112966003,5101224.5743392715,3602231.7426882745,-181.36660943307015,-4617.613353753668,6435.479938098511,0.9948395074270007,-2.8903880728275928e-05,0.0002713530774813349,0.10146073129282987
0.855,-1.7599569636541498e-05,0.0006191136574394424,-0.0071434696527028375,-41.603312000997605,46.503001870627024,4.958779259069608,-1658937.9174694158,5101201.486268356,3602263.9205080406,-181.10251672221872,-4617.615012229473,6435.647968432295,0.9948413181409106,-2.907788923618224e-05,0.0002729110607373165,0.10144297113987169
0.86,4.590492964073694e-06,0.0006436193216047809,-0.007151201260364418,-41.58694523238961,46.48200422184196,4.9602681004909766,-1658938.8223217472,5101178.398189071,3602296.09916768,-180.8384158767429,-4617.616702122127,6435.815887293016,0.9948431291943521,-2.92835468310473e-05,0.00027444587763686727,0.10142520454366234
0.865,-1.1717075056601328e-05,0.0006304038628111571,-0.0071175306937658325,-41.56936750189395,46.47446675645201,4.9574661097682675,-1658939.72585387,5101155.31010137,3602328.2786667645,-180.57443321254274,-4617.618377949853,6435.983746517814,0.9948449418729426,-2.9440234372976982e-05,0.0002760472686902324,0.10140741866845646
0.87,1.2298161498595057e-05,0.0006328785281290395,-0.0071426114578901695,-41.579980362723816,46.455588737159395,4.964213369588295,-1658940.628066314,5101132.222005201,3602360.4590051053,-180.31054436330763,-4617.620089930073,6436.151589794411,0.9948467457043344,-2.9634107058796596e-05,0.00027761165953147217,0.10138971651544236
0.875,-1.850965134912584e-05,0.0006169827109961435,-0.0071258881080142975,-41.57123630798629,46.44375203040128,4.958240618961606,-1658941.5289593139,5101109.133900684,3602392.6401825156,-180.04665566333622,-4617.621716570981,6436.319374196914,0.9948485555745346,-2.9768895706103553e-05,0.00027918829045260797,0.101371951934318
0.88,2.4705017056735522e-05,0.000607147080446393,-0.007126991412760627,-41.56570838459761,46.41496653185895,4.951098013850258,-1658942.4285330153,5101086.045787984,3602424.8221987234,-179.78282486254471,-4617.623363864263,6436.487108938398,0.9948503608964387,-2.997626696670988e-05,0.0002807175800817475,0.1013542289363857
0.885,1.8743737273449352e-06,0.0006194024177966695,-0.007126607795332587,-41.547267269826946,46.39148533564088,4.964719226506739,-1658943.326787744,5101062.9576670965,3602457.0050532934,-179.51906660889978,-4617.624990982713,6436.6547192041935,0.9948521661899343,-3.0073666464006444e-05,0.0002822333570604258,0.10133650313239603
0.89,5.370529802939823e-06,0.0006285141623270419,-0.007115690340822021,-41.54511512896338,46.3824268969257,4.95690443964561,-1658944.2237240502,5101039.869538232,3602489.18874583,-179.25545586676492,-4617.626554712089,6436.822295382505,0.9948539710577281,-3.0230953251017547e-05,0.00028377383065606446,0.10131877826529324
0.895,2.3698294465444506e-05,0.0006313589153728463,-0.007129104723450289,-41.5475399556129,46.3655036347245,4.955256238214155,-1658945.119342355,5101016.781401497,3602521.3732761247,-178.99186606431644,-4617.628139193513,6436.989822487482,0.9948557728362316,-3.0381844848322787e-05,0.00028533785268991323,0.10130108051584512
0.9,2.442437819688378e-05,0.0006000584513322583,-0.0071207304081104695,-41.53344156198104,46.34370373741854,4.950472364429819,-1658946.013642767,5100993.693256917,3602553.558643886,-178.7282987876127,-4617.629692675995,6437.157282009591,0.9948575776934346,-3.0487882740200223e-05,0.0002869135904670854,0.10128334935729767
0.905,-9.69763720579809e-06,0.0006096691788904037,-0.007120626060735131,-41.52825781395379,46.32311553030332,4.9423419216813125,-1658946.9066255963,5100970.60510456,3602585.744848739,-178.46483289445226,-4617.631250223161,6437.324659181589,0.9948593801346889,-3.058418320123122e-05,0.00028841166388172745,0.10126563899636734
0.91,6.039945613032913e-06,0.0006408750221701743,-0.007118983133229707,-41.51963338456453,46.31341123072633,4.947062157137204,-1658947.7982912334,5100947.516944411,3602617.9318902423,-178.20142191714814,-4617.632809525,6437.49194210045,0.994861182222439,-3.076778318615763e-05,0.0002899250020492079,0.10124792888650963
0.915,-6.689719317743416e-06,0.0006240775435299546,-0.00711810955411235,-41.52235038856282,46.286166649965466,4.941536848995439,-1658948.6886399835,5100924.428776507,3602650.119768132,-177.93807812320725,-4617.634351976174,6437.659213744915,0.9948629835552965,-3.09201390123186e-05,0.00029151993745000327,0.10123022281673154
0.92,-2.0957033459765834e-05,0.0006235336121913549,-0.007104839648968232,-41.501962389313015,46.278129336566806,4.939691903672544,-1658949.5776721018,5100901.340600991,3602682.3084820784,-177.67476917676657,-4617.63585441982,6437.8263648178145,0.9948647843607586,-3.1099903841768616e-05,0.00029306987328393813,0.10121251889794423
0.925,-9.701005500030853e-06,0.00062347667223114,-0.00711791219583628,-41.49868670385778,46.2500725792084,4.9378537029390515,-1658950.4653879465,5100878.252417871,3602714.498031747,-177.41156871495124,-4617.637393818117,6437.993502828099,0.9948665814909288,-3.131500642815008e-05,0.0002946148471339186,0.10119484796181805
0.93,-2.031276616317729e-05,0.0006152037461059617,-0.00710603995015505,-41.485895759923665,46.234527199866214,4.941125929150965,-1658951.3517879585,5100855.164227163,3602746.688416835,-177.14843612625575,-4617.638889125522,6438.160532226994,0.9948683816123385,-3.150210861276003e-05,0.0002961625258775808,0.10117714447157483
0.935,-1.094787379417524e-05,0.0006144684610250347,-0.007093567828544169,-41.47607418684876,46.21900781473609,4.93523620402655,-1658952.236872544,5100832.076029019,3602778.8796369806,-176.8853980677927,-4617.640368411953,6438.327526047114,0.9948701784191469,-3.1713502682319665e-05,0.00029768694511124515,0.1011594704859172
0.9400000000000001,2.564264483763938e-06,0.0006460393524371233,-0.00712404698525619,-41.47778743697784,46.19906970801095,4.932250983382907,-1658953.1206421126,5100808.9878234435,3602811.0716919363,-176.62242940216044,-4617.641861755946,6438.494456272244,0.9948719717572807,-3.1901409376883085e-05,0.0002992119048251398,0.10114182748159403
0.9450000000000001,-6.278406617572565e-07,0.0006184695488930203,-0.007100451903704906,-41.468736829359095,46.183244077241,4.928263537091589,-1658954.0030969114,5100785.899610479,3602843.2645813357,-176.35949010248348,-4617.643323893263,6438.661303467748,0.994873772462972,-3.2063714585612946e-05,0.0003008188011063304,0.10112410862530213
0.9500000000000001,4.644754555657679e-06,0.0006365529208127719,-0.007109316248612378,-41.4539547036228,46.16807682077293,4.922779808767997,-1658954.884237186,5100762.811390194,3602875.4583048206,-176.0966197559344,-4617.644790271878,6438.828090545694,0.9948755669070446,-3.222697146421408e-05,0.0003023563209999204,0.10110644842671694
0.9550000000000001,9.759506534514788e-07,0.0006180089122299168,-0.007120276237809865,-41.45409835436764,46.14326518916244,4.930739931626324,-1658955.7640633378,5100739.723162519,3602907.652862099,-175.83384092100195,-4617.646280051655,6438.994820718253,0.9948773632621503,-3.238169195643315e-05,0.00030394014957886,0.10108876614324129
0.96,5.511133839736426e-06,0.0006307570282736292,-0.007083235539459164,-41.45036186702467,46.123859971328734,4.927589793956833,-1658956.6425757434,5100716.6349276,3602939.8482528506,-175.57112133384678,-4617.647687501183,6439.161480018429,0.9948791620836756,-3.2540859313791195e-05,0.00030547692745058037,0.10107105657221095
0.965,-3.4560961124479056e-06,0.0006057455158430323,-0.007096939275724236,-41.44423578407334,46.101571177367354,4.922669529709545,-1658957.5197746826,5100693.546685689,3602972.044476707,-175.3084543749827,-4617.6490767908745,6439.328062553719,0.994880951220447,-3.269193963889067e-05,0.00030704656126551334,0.10105343909212136
0.97,1.3163516566707e-05,0.0006162757625581668,-0.007095630474350268,-41.42992832420027,46.07628235099521,4.911355518656491,-1658958.3956604528,5100670.458436864,3603004.2415332478,-175.0458536602842,-4617.650453129037,6439.494553622051,0.9948827435227557,-3.285901504014404e-05,0.0003085517197464815,0.10103578750500307
0.975,-9.204387287535658e-07,0.0006370976573261177,-0.007082974729230613,-41.42232565444115,46.065656891049045,4.921793958196799,-1658959.2702334695,5100647.370181102,3603036.4394219564,-174.7833530624524,-4617.651851644001,6439.660929956082,0.994884535172273,-3.298741283617544e-05,0.0003100872670781241,0.10101813912742438
0.98,4.0989399157112424e-06,0.0006152487083244436,-0.007091540277474535,-41.405587785897275,46.04369474929418,4.918237750836272,-1658960.1434941622,5100624.281918457,3603068.6381425476,-174.52092401913228,-4617.6532064716375,6439.827306361392,0.9948863232933873,-3.315608905675029e-05,0.0003116710469706558,0.1010005222045801
0.985,-3.874307144838305e-06,0.0006174936288832189,-0.007099972700957264,-41.40773254902544,46.028477599752556,4.907526817729189,-1658961.0154429972,5100601.193649027,3603100.8376948265,-174.25860994745082,-4617.654565468838,6439.9936052508665,0.9948881132799878,-3.3306770774861074e-05,0.00031320175040289237,0.10098288394331396
0.99,8.209508136633074e-06,0.0006097827083520446,-0.007056368131018563,-41.39948148877083,46.01364505428038,4.914929433521626,-1658961.8860802841,5100578.105372779,3603133.0380783854,-173.99630483572156,-4617.655933606655,6440.159818302915,0.9948899050775527,-3.3477857053226686e-05,0.00031473602374192436,0.10096522468279155
0.995,-2.2190099663532045e-05,0.0006185132839247595,-0.007096818982889079,-41.39089775475763,45.99221347477208,4.908319670204402,-1658962.755406241,5100555.017089791,3603165.239292947,-173.73407785748526,-4617.657261708367,6440.326006377945,0.9948916855619606,-3.361690750955608e-05,0.00031625417195145646,0.10094767383591956
1.0,-1.2837972311453283e-05,0.0006071860673288798,-0.00708434870559182,-41.38007896429653,45.967416142872054,4.900985590234885,-1658963.6234212464,5100531.928800161,3603197.4413382225,-173.47192437349463,-4617.658590486518,6440.492103723382,0.99489347593172,-3.383380405800542e-05,0.0003177863596800614,0.10093002236997445
1.0050000000000001,-2.869319964597287e-05,0.0006210738427954061,-0.007077906944204382,-41.36813270169124,45.94831594488052,4.906347431840871,-1658964.4901257062,5100508.840503885,3603229.644213723,-173.20985955305295,-4617.659919711062,6440.658096529223,0.9948952628497454,-3.402457162175306e-05,0.00031929273470418523,0.1009124018820992
1.01,6.0533924309164865e-06,0.000626192019468482,-0.007084661606059686,-41.36005826653352,45.931349764302944,4.8988506200813795,-1658965.3555200913,5100485.752201049,3603261.8479190753,-172.94789447334927,-4617.661214715022,6440.824044351276,0.9948970478160637,-3.425827338110453e-05,0.00032082965240780856,0.10089479739603027
1.0150000000000001,-4.1088992351658e-08,0.000615574705628296,-0.007095759415143821,-41.35207432439383,45.90376065540005,4.897693299022449,-1658966.219604806,5100462.663891705,3603294.0524539775,-172.6859914120936,-4617.6625231280705,6440.989916668947,0.9948988341708028,-3.4406848336178305e-05,0.0003223880639546703,0.10087717604930456
1.02,-1.3054185366050315e-05,0.0006083242876880205,-0.007068193119839019,-41.35094591998062,45.89119625030974,4.901586612208662,-1658967.0823802277,5100439.575575908,3603326.257817989,-172.42417724730024,-4617.663795368021,6441.15568802305,0.9949006230173751,-3.456791309442271e-05,0.0003239185295767695,0.1008595270734727
1.025,-1.2157896040052114e-05,0.0006040522518547527,-0.007069855152281603,-41.33912776629318,45.86396721779332,4.896210772325291,-1658967.9438466725,5100416.48725384,3603358.4640107793,-172.16240065865793,-4617.665031977748,6441.321427857616,0.9949024046036885,-3.475949417856818e-05,0.00032542768262866907,0.10084194664126404
1.03,1.2905148061157072e-05,0.0006186495328814362,-0.007069840293708845,-41.327093970473335,45.85036913347593,4.897235733909511,-1658968.8040044843,5100393.3989256155,3603390.6710319975,-171.9007240591578,-4617.666257732956,6441.487059530711,0.9949041862995486,-3.4947770301923744e-05,0.00032692643574584805,0.1008243620430707
1.035,9.262029993934459e-06,0.0005996783520590864,-0.007071580440333938,-41.31521128707631,45.83137333495734,4.893691263506192,-1658969.6628541246,5100370.310591273,3603422.8788812878,-171.63913208459496,-4617.667479133027,6441.652656469436,0.9949059676687969,-3.507738748726162e-05,0.000328467813415016,0.1008067774283423
1.04,5.5657913263399205e-06,0.00062098029703833,-0.00705780141831287,-41.31228717212725,45.810836592090105,4.880032199463186,-1658970.5203960247,5100347.222250822,3603455.0875583882,-171.37762791954842,-4617.6687014486115,6441.818183867769,0.9949077491786653,-3.5211286431267375e-05,0.00032996108634817387,0.10078918845833065
1.045,6.67739294946961e-06,0.0006069124978732108,-0.007048394922387615,-41.30151863338246,45.78482592356268,4.889734967312496,-1658971.3766304974,5100324.133904211,3603487.2970628473,-171.1161611651066,-4617.669942657586,6441.98359973489,0.9949095268860293,-3.5359735053460575e-05,0.00033150641271366784,0.1007716337299577
1.05,2.7848993238801142e-06,0.0006115144286089427,-0.007053597398792632,-41.284008182873464,45.762819813702976,4.8866990738909415,-1658972.2315579173,5100301.045551569,3603519.507394231,-170.85480683946943,-4617.671114176264,6442.148953673074,0.9949113019237051,-3.55018669234168e-05,0.0003330170293830906,0.10075410236686934
1.055,-3.1374835926396532e-06,0.0006105871668348518,-0.007051987751222697,-41.279714023567,45.73705566072422,4.887798998740291,-1658973.0851788635,5100277.957193061,3603551.718552195,-170.59357159738423,-4617.67228921178,6442.314231888528,0.994913077956176,-3.5654843986793614e-05,0.0003345381113070146,0.10073655803506588
1.06,1.1488588004854433e-05,0.0006172961885919051,-0.0070391680679495975,-41.278620820591335,45.72902512846533,4.882702568175631,-1658973.937493813,5100254.868828799,3603583.9305363237,-170.3324082400201,-4617.673415752863,6442.479419728309,0.9949148532718916,-3.5822316810429606e-05,0.00033605539540629303,0.10071901768039403
1.065,5.282361595848604e-06,0.0006296584437175327,-0.007064799194139848,-41.26470745042631,45.69572815220961,4.879100650644692,-1658974.78850299,5100231.780458879,3603616.143346296,-170.0712625336063,-4617.674552367605,6442.6445692201005,0.9949166250442976,-3.595508892806414e-05,0.00033759305062099716,0.10070150916758112
1.07,-7.133110014541917e-06,0.0006171776543142238,-0.007037288574076713,-41.25727957817105,45.68182316520541,4.882174516359703,-1658975.6382067448,5100208.692083344,3603648.3569817008,-169.81023935325663,-4617.675661403852,6442.809592555559,0.9949184029467906,-3.610643160560939e-05,0.00033915988951798006,0.10068393687526665
1.075,1.0648329467317437e-05,0.0006323867988842178,-0.00705319393088922,-41.25653357448477,45.66530086512447,4.873618513685273,-1658976.4866055513,5100185.603702321,3603680.5714421365,-169.54928330467408,-4617.676747794519,6442.974581807666,0.9949201736224795,-3.628549036103758e-05,0.00034069256227797735,0.10066643299013073
1.08,-3.5035847765979753e-07,0.0006302637324752806,-0.007034316706380742,-41.2362687818966,45.63773995413915,4.857932011365812,-1658977.333699645,5100162.515315858,3603712.7867273116,-169.2883541658838,-4617.677837663575,6443.139488242632,0.9949219479785921,-3.642416249590606e-05,0.0003422675381857217,0.10064888949559468
1.085,4.876227586693714e-06,0.000626486030970064,-0.007028150705735281,-41.221650811538645,45.620481236403194,4.869826063583896,-1658978.1794894058,5100139.426923829,3603745.0028366907,-169.02755019734894,-4617.678973747678,6443.304263289815,0.9949237172745953,-3.658964134612985e-05,0.00034383446747771073,0.10063139293261449
1.09,2.084078237606377e-05,0.000602302867734677,-0.007060616140315884,-41.21691694913887,45.59954080548843,4.867540863674707,-1658979.0239754387,5100116.338526246,3603777.2197699016,-168.76686293297706,-4617.680059424932,6443.469021208421,0.9949254847132148,-3.67411643602483e-05,0.0003453933158111693,0.1006139116708955
1.095,1.5317303509531526e-05,0.0006108866373471565,-0.0070474624251999,-41.21490145227891,45.57485710356047,4.863381689281032,-1658979.8671581873,5100093.250123292,3603809.437526703,-168.50623644945722,-4617.68112185702,6443.633699198113,0.9949272600294452,-3.6846923633593286e-05,0.00034689602558190055,0.10059634961444938
1.1,1.2419878335704054e-05,0.0005991625560563868,-0.0070388857763742435,-41.1985735448658,45.553085470339106,4.871689370265901,-1658980.7090379356,5100070.161715102,3603841.6561066373,-168.2456628916785,-4617.682154294881,6443.798274590072,0.9949290317179735,-3.696856887691882e-05,0.0003484186979170598,0.10057882024796033
1.105,-5.586268600998229e-06,0.0006147006881081922,-0.007025180707708758,-41.18795772176807,45.53005094233635,4.8557387898946445,-1658981.5496151359,5100047.073301857,3603873.8755093385,-167.9852172116092,-4617.6831436001385,6443.96280590743,0.9949308009491283,-3.70944654834365e-05,0.0003499114808149346,0.10056131218655721
1.11,2.0851218195498945e-05,0.0006029205276215154,-0.007052463660728859,-41.182831827974354,45.51401455789822,4.849324489877162,-1658982.388890291,5100023.984883572,3603906.095734392,-167.72484489456252,-4617.684170767316,6444.127215430955,0.9949325664097372,-3.726904360235559e-05,0.00035143838648582406,0.10054383819714087
1.115,-8.562254022387625e-06,0.0006241471760026487,-0.007024837194323998,-41.16739206513333,45.48819552310932,4.86091388582449,-1658983.2268637058,5100000.896460137,3603938.3167813146,-167.4645209642865,-4617.685203025396,6444.291553690143,0.9949343384305965,-3.737492583251216e-05,0.00035294263365777086,0.10052629629248083
1.12,2.190751985515659e-05,0.0006459219523281611,-0.007017213611045605,-41.15388378142827,45.480617975252436,4.851290036035727,-1658984.063535839,5099977.808031709,3603970.5386497984,-167.20433240650277,-4617.686168095466,6444.455839866276,0.9949361031765952,-3.755927944925247e-05,0.0003544922890357968,0.10050882309672686
1.125,-6.766552376394165e-06,0.0006078012781241367,-0.007029455592275727,-41.15558493372986,45.44268343992977,4.8452944022538,-1658984.8989071965,5099954.71959832,3604002.761339616,-166.9442105005514,-4617.687187488731,6444.620087086341,0.9949378656815214,-3.7673308995700165e-05,0.0003561037625000929,0.10049136880315102
1.1300000000000001,-6.108640722979283e-06,0.0006192880798977613,-0.007021880031663162,-41.14279103640446,45.425158316836324,4.849182974523301,-1658985.7329780883,5099931.631159986,3604034.9848502576,-166.68414626057393,-4617.688145981959,6444.784169643484,0.9949396309840359,-3.7849094732685275e-05,0.0003576132117032515,0.10047388405743798
1.135,7.075104380970943e-06,0.0006264086298657309,-0.007027529717295601,-41.124245240409174,45.40006315313864,4.8515163580882765,-1658986.5657489058,5099908.5427169185,3604067.2091812068,-166.42418068906733,-4617.689081247776,6444.948210028318,0.9949413940641976,-3.8026122538147596e-05,0.0003591513984552065,0.10045641812188084
1.1400000000000001,-3.985433899034077e-06,0.0006006394755749316,-0.007024207814373634,-41.126647294810944,45.389118426002106,4.8402894128129805,-1658987.3972202353,5099885.454269231,3604099.4343321766,-166.1643511903951,-4617.6899937903745,6445.11217789463,0.9949431582488191,-3.8172151032572035e-05,0.0003607106068627346,0.10043893808981824
1.145,1.0280510471990235e-05,0.0006081369991880709,-0.006992462065213841,-41.1127151789509,45.358478424752775,4.847882444524397,-1658988.2273924157,5099862.36581693,3604131.6603028104,-165.90452096170594,-4617.690926622774,6445.276075490259,0.9949449213122026,-3.833921747046401e-05,0.0003622029410939591,0.10042146630172677
1.1500000000000001,1.4804561307697233e-05,0.0005980986768919052,-0.006998151154458079,-41.091518541065746,45.33997376976771,4.834994921238464,-1658989.056265775,5099839.277360129,3604163.887092721,-165.64482281275622,-4617.691793824478,6445.439888924868,0.9949466760925763,-3.84726528590928e-05,0.0003637175088311599,0.10040407343212168
1.155,8.480524896639046e-06,0.0005869399535197284,-0.007009467218081262,-41.0810850169919,45.31305879255308,4.827285651617064,-1658989.8838409353,5099816.188898847,3604196.114701484,-165.38524120622898,-4617.6927188012605,6445.603616186813,0.9949484320039751,-3.8592320714440335e-05,0.00036520824250343574,0.10038666637758141
1.16,1.2869280338532851e-05,0.0006154301219285297,-0.006989487115531064,-41.08572856481605,45.28995175935145,4.824389300309835,-1658990.7101184123,5099793.100432951,3604228.3431285964,-165.1257496171216,-4617.693639788915,6445.767228702277,0.9949501904576875,-3.872492864735648e-05,0.0003666696319630212,0.10036923115164507
1.165,-1.8681628271129865e-06,0.0005980333521703057,-0.006990343385906704,-41.066549951119896,45.2720235125866,4.832888324064273,-1658991.5350984856,5099770.011962562,3604260.5723735252,-164.8662797447032,-4617.694515710001,6445.930742943015,0.9949519435653317,-3.885375061116965e-05,0.0003682029902300543,0.10035184558598402
1.17,2.3905492150555333e-06,0.0006185374347402429,-0.006987560598431793,-41.05816253976698,45.25748089274559,4.829962530688078,-1658992.3587815445,5099746.923487867,3604292.8024359616,-164.6069437797713,-4617.695362291501,6446.094231480157,0.9949536965962622,-3.9014866475649575e-05,0.000369689378601872,0.1003344578748338
1.175,-1.373365129131224e-05,0.0005965581668763041,-0.006991712013122893,-41.05425932609525,45.221146810553094,4.816315301662521,-1658993.1811680854,5099723.835008936,3604325.033315708,-164.34767254528037,-4617.696210257736,6446.257667181788,0.9949554486045888,-3.917052986801074e-05,0.00037122783690217784,0.10031707704874678
1.18,2.9036764133027166e-06,0.0005830954187773775,-0.006983376025318242,-41.037981143061934,45.20259213110179,4.815943866150248,-1658994.002258445,5099700.746525804,3604357.265012196,-164.0884712938457,-4617.697042592528,6446.420927859822,0.994957201366779,-3.936079201422046e-05,0.0003727075798692894,0.10029968588273201
1.185,1.584744557944689e-05,0.0006076639036660325,-0.006994340473791338,-41.0186979375571,45.18628784832309,4.817448419576689,-1658994.8220530748,5099677.658038514,3604389.4975248477,-163.8293806433932,-4617.697873192754,6446.5841330485455,0.9949589517471217,-3.950628703508125e-05,0.00037415800819356256,0.10028231540659191
1.19,1.8541578835322103e-06,0.0005931527368397704,-0.006999341482115858,-41.00246014216574,45.15938106740372,4.813103786498307,-1658995.6405525575,5099654.569547066,3604421.7308534295,-163.57041243542793,-4617.698705970395,6446.747299600653,0.9949607045486688,-3.962575546375904e-05,0.0003756727919826515,0.1002649176121412
1.195,-1.1597059395903412e-05,0.0006027030103451638,-0.006990457596316497,-41.00637430160105,45.135947936809174,4.815650670501895,-1658996.4577575,5099631.481051468,3604453.9649975924,-163.31156454886718,-4617.699533356309,6446.910365606183,0.994962458309348,-3.977639810317658e-05,0.0003771479724690096,0.10024750736184891
1.2,1.8861684014020054e-05,0.0006153704024018119,-0.0069881411498253065,-40.98550278679531,45.12583644436953,4.806251358786405,-1658997.2736682843,5099608.392551897,3604486.199956876,-163.05274917620076,-4617.700294935523,6447.073347808866,0.9949642095267291,-3.996288447230084e-05,0.00037864353800411626,0.10023011919024165
1.205,3.4528640886416293e-06,0.0006013534805069571,-0.00699177940633969,-40.97890501781389,45.08219078503276,4.798400154060113,-1658998.088285253,5099585.304048362,3604518.435730964,-162.79403824612936,-4617.701119132597,6447.236287339063,0.9949659598486327,-4.007677937300205e-05,0.0003801782448671842,0.10021273671965546
1.21,-2.4635151232150135e-05,0.0006231508166619405,-0.00699500896414222,-40.967435258747486,45.07193268459347,4.813075277904722,-1658998.9016089232,5099562.21554083,3604550.6723192837,-162.53542991218023,-4617.701893530291,6447.399040558946,0.994967710787676,-4.022549416234507e-05,0.0003816742249483502,0.10019534518443132
1.215,1.5247111924486228e-05,0.0006069399047361015,-0.006985415761068097,-40.962585405889165,45.05009511380236,4.806485565382954,-1658999.7136397855,5099539.127029556,3604582.9097214104,-162.2769150209615,-4617.702616068012,6447.561810083084,0.9949694622055948,-4.044953867070683e-05,0.0003832173879803364,0.10017794560969
1.22,-1.1301705234067901e-05,0.0006127118724824601,-0.006957121275239036,-40.941641339167816,45.02045335809045,4.79969175556146,-1659000.5243782164,5099516.0385146905,3604615.1479371455,-162.01845733970478,-4617.703330395669,6447.724483947442,0.9949712109342954,-4.0570309951476926e-05,0.0003847302167666575,0.10016056982990847
1.225,8.803940013606514e-06,0.0006163353575029227,-0.006963832167973993,-40.93254960069587,44.99513095017581,4.788470276258613,-1659001.3338247167,5099492.949996233,3604647.386965963,-161.7601428149798,-4617.704052293762,6447.887043141602,0.9949729522652436,-4.075853758630392e-05,0.0003862507577977238,0.10014326442491794
1.23,-3.1791197769884327e-06,0.0005899759849563836,-0.006956572314388867,-40.92941577147249,44.96738301975226,4.790258642755299,-1659002.141979836,5099469.861474141,3604679.6268072785,-161.50190479985199,-4617.704784860505,6448.0494830158,0.9949746949712398,-4.089766742493639e-05,0.00038778534481344643,0.10012594227669176
1.235,1.242146678583787e-05,0.0005872784835432777,-0.006944217556012785,-40.9154726881243,44.94912361326503,4.7935759517787755,-1659002.948843942,5099446.7729485305,3604711.8674605493,-161.2437376298719,-4617.705459037932,6448.211825208566,0.9949764355807964,-4.105999917354416e-05,0.00038925136564362537,0.10010863817066068
1.24,3.2741764787776202e-06,0.0005964418786853944,-0.006953631021440449,-40.90262714781013,44.92550915494991,4.79231912471091,-1659003.7544174728,5099423.684419601,3604744.1089254157,-160.98567471965308,-4617.706112751833,6448.374121409261,0.9949781727999706,-4.118283823888711e-05,0.0003907145821314882,0.10009136475101653
1.245,1.0990720370812885e-05,0.0006168093301583402,-0.006946788945808812,-40.90301436945978,44.90254253915295,4.790703698334668,-1659004.5587009469,5099400.595887446,3604776.3512015594,-160.72771486805487,-4617.70674944587,6448.536336157848,0.9949799120623082,-4.133073281395518e-05,0.00039219830206486006,0.10007406789345585
1.25,-4.993374671243148e-06,0.0005983859953350266,-0.006956449782185019,-40.89128157782169,44.8807228834891,4.777614854488467,-1659005.3616947266,5099377.50735221,3604808.5942885503,-160.46979707832858,-4617.707344942603,6448.698460193541,0.9949816492910042,-4.146452178671055e-05,0.00039373461616341697,0.10005678801510065
1.2550000000000001,-1.7954424220387535e-05,0.0005865475230255332,-0.006943688064702063,-40.872854031066886,44.851289175416134,4.788712707438307,-1659006.1633991166,5099354.418813918,3604840.838185891,-160.21195893754287,-4617.707971865177,6448.860476072723,0.9949833886499461,-4.1633471510221817e-05,0.00039522110364750075,0.10003948409305038
1.26,1.3439896675226825e-06,0.0005943124959010253,-0.006936456993696129,-40.84888847002238,44.83762410634098,4.780602741143821,-1659006.9638147021,5099331.330272661,3604873.082893146,-159.9542751966839,-4617.708531137091,6449.022426001961,0.9949851245249804,-4.183168789767503e-05,0.00039667490308967516,0.10002221189885956
1.2650000000000001,-3.4517594410515514e-05,0.0005810038675028975,-0.006935553902459135,-40.844216350369145,44.80851691136388,4.775496353779088,-1659007.7629421845,5099308.241728468,3604905.3284100234,-159.696717733218,-4617.709146029246,6449.184324842609,0.9949868582844751,-4.198383468902899e-05,0.0003981528439241596,0.10000495764141128
1.27,1.7802712201967328e-06,0.0006134830022246175,-0.006938171785306748,-40.83702187861797,44.78820935011921,4.779126874627871,-1659008.5607820575,5099285.153181278,3604937.5747360913,-159.4392315237389,-4617.709729691942,6449.346102391511,0.9949885915263486,-4.222185775888054e-05,0.00039958871411647183,0.09998770563718026
1.2750000000000001,-1.3427639058256651e-05,0.0006046519031138575,-0.00693243527428901,-40.810559043559785,44.762556459081246,4.772637964802133,-1659009.3573346946,5099262.064631271,3604969.8218708998,-159.18182330695242,-4617.710273122184,6449.507820873058,0.9949903250925312,-4.237771231103901e-05,0.0004011144481834174,0.0999704470510567
1.28,-4.182095067406126e-06,0.0006091470432081172,-0.006930559641804744,-40.805939915586784,44.74232770162619,4.782446064147201,-1659010.1526006933,5099238.9760784805,3605002.0698140673,-158.92457615062585,-4617.7108432807845,6449.669446155934,0.9949920569308375,-4.256918328453316e-05,0.0004026144147371921,0.09995320272026693
1.285,8.049135032110402e-06,0.0006135707977947311,-0.006938358514156519,-40.79980567376002,44.70816361583339,4.767605484581091,-1659010.9465806417,5099215.887523012,3605034.3185652522,-158.66740322840874,-4617.711343724535,6449.83102786253,0.9949937879958418,-4.2738777509295394e-05,0.00040412787324480383,0.09993596301504667
1.29,9.286806823841013e-06,0.0006193778599001911,-0.00692053302558272,-40.784739293977836,44.68514486714444,4.766800777504961,-1659011.7392749113,5099192.798965047,3605066.5681239264,-158.41030465278308,-4617.711842634211,6449.992441697052,0.9949955207047911,-4.287905983598325e-05,0.0004056553906669577,0.09991870386715407
1.295,-8.116610728653115e-06,0.0005901744372852756,-0.006932277250603382,-40.76833723006911,44.67063207999336,4.7587389673842235,-1659012.5306839694,5099169.710404619,3605098.8184894794,-158.15331856196613,-4617.712328584108,6450.153779544433,0.9949972486542644,-4.301769596276045e-05,0.0004071976640456192,0.09990148902786312
1.3,-1.4640354625652371e-06,0.000615255006489239,-0.006938103365776556,-40.76620986029327,44.63998404367862,4.756908405338062,-1659013.3208083317,5099146.621841666,3605131.06966157,-157.89642636973517,-4617.7128524316295,6450.315056741649,0.9949989792641382,-4.3192341250036444e-05,0.000408662946157031,0.09988424496556704
1.305,-3.034317236142163e-06,0.0006087521845802862,-0.00695293375316176,-40.74825104665351,44.61103358568165,4.741430409239363,-1659014.1096484,5099123.533276226,3605163.3216397455,-157.63960092401283,-4617.713323365594,6450.476213417386,0.9950007110025869,-4.335670709682048e-05,0.0004101922765860939,0.09986698637106682
1.31,-7.338621919626727e-06,0.0006182202286291379,-0.006931510608561787,-40.73277154774254,44.5867822053557,4.75672847456767,-1659014.897204634,5099100.44470834,3605195.5744233574,-157.38289270349082,-4617.713831434399,6450.637231327771,0.9950024461478754,-4.352337067434506e-05,0.0004117050374537014,0.09984969085792286
1.315,-4.069228093915921e-07,0.0005984446759796755,-0.0069065403634812296,-40.732405557618854,44.563296464928584,4.741624007816857,-1659015.68347767,5099077.356138108,3605227.8280119696,-157.12632169824286,-4617.714261106287,6450.798213599861,0.995004175633163,-4.3703082626027085e-05,0.0004132402778860843,0.09983244860807093
1.32,4.804945029276445e-06,0.0005899585814105736,-0.006914521748474124,-40.70932999118369,44.53401511493284,4.755024907758329,-1659016.4684679233,5099054.267565698,3605260.082405168,-156.86977963716595,-4617.714702997633,6450.959065882855,0.9950058986075222,-4.3860590489236057e-05,0.00041472805904965303,0.09981526843686231
1.325,3.137131852804777e-05,0.0006065937246428639,-0.0069042394450518916,-40.68903439401595,44.50660139305982,4.749011143189698,-1659017.252175911,5099031.178991246,3605292.3376024906,-156.61341541088572,-4617.715077895359,6451.119862962266,0.9950076232837349,-4.400302441188948e-05,0.0004161960304879369,0.09979806837735529
1.33,-3.1469764302100713e-06,0.0005785304021160036,-0.006922016664905616,-40.69299216115705,44.49527469875908,4.747623165251412,-1659018.0346024202,5099008.0904148985,3605324.5936035374,-156.35718825414688,-4617.715460913699,6451.2805558442,0.9950093450810641,-4.4083513650202915e-05,0.0004177120113499601,0.0997808938358013
1.335,-2.8088590680349516e-06,0.0006051060365337449,-0.006892094872428306,-40.675741119898895,44.46341617989886,4.738542772671977,-1659018.815747807,5098985.001836694,3605356.8504079343,-156.1009664515135,-4617.715821147565,6451.441202920952,0.9950110710390686,-4.424288604628589e-05,0.00041914957129085984,0.09976367508211356
1.34,1.1531355449983834e-05,0.0006034246811077062,-0.006893778337206568,-40.66180631906134,44.44108173410339,4.739490144593353,-1659019.5956124032,5098961.913256678,3605389.108015233,-155.84487206188666,-4617.716185150188,6451.601716652902,0.9950127892076283,-4.440801420590646e-05,0.00042065332637116734,0.09974653072645373
1.345,2.1528344446478527e-06,0.0005909951295642583,-0.0068997377824275685,-40.64553741928096,44.411263841823754,4.7372530430724415,-1659020.3741967983,5098938.824674894,3605421.3664249275,-155.58888601273173,-4617.716528469077,6451.762161035513,0.9950145075016037,-4.4537053107095304e-05,0.0004221564746799401,0.09972938213837969
1.35,-1.3703916985380744e-05,0.0006237880108419701,-0.006890062428086883,-40.6392365804204,44.389473376814124,4.72136322791692,-1659021.1515015836,5098915.736091444,3605453.6256365767,-155.3330280884249,-4617.716851202647,6451.922498676994,0.9950162269954628,-4.4686328716933114e-05,0.0004236263649531987,0.09971221870738124
1.355,5.2035286641802935e-06,0.0005947998314781625,-0.0068686464355640275,-40.61965705485563,44.36389822322278,4.728509602320606,-1659021.9275272079,5098892.647506303,3605485.885649613,-155.07722162670265,-4617.717205239378,6452.082715820209,0.9950179437430043,-4.48832130063168e-05,0.0004251738770233345,0.09969507932749216
1.36,-1.7704010288569494e-05,0.0006024526327812914,-0.006872240866893073,-40.60753122641427,44.331491165048675,4.718659221864867,-1659022.7022741684,5098869.558919495,3605518.1464635837,-154.82156259179138,-4617.717518236157,6452.242872400149,0.9950196548891851,-4.502581645212927e-05,0.00042665399442145895,0.09967799317428067
1.365,-2.6734552315472403e-06,0.0005974655003387985,-0.006862771429550213,-40.59329313551469,44.301321844978226,4.724405274551931,-1659023.4757430947,5098846.470331133,3605550.408077982,-154.56600789895194,-4617.717826191179,6452.402886978495,0.9950213666245596,-4.522731438718822e-05,0.0004281474395636254,0.0996608980736869
1.37,-1.4463309400452672e-05,0.0006089855563894811,-0.0068641053571337875,-40.584485875807545,44.2853902653048,4.71358598644691,-1659024.2479345722,5098823.381741376,3605582.6704922346,-154.31058305050422,-4617.718077125061,6452.56281398709,0.9950230757121015,-4.539017030907757e-05,0.0004296322247875354,0.099643826483699
1.375,1.726859754359182e-05,0.0005962302982756001,-0.006870670308749529,-40.56803162556303,44.264132862766836,4.709504421211606,-1659025.018849072,5098800.293150288,3605614.933705921,-154.05521689457535,-4617.718357928561,6452.72266048219,0.9950247848230102,-4.558522534878777e-05,0.00043114272957114777,0.09962675155728169
1.3800000000000001,-1.0761732568189254e-05,0.0006034589304797955,-0.006860289177673728,-40.560720133087756,44.23575497625801,4.714876476774233,-1659025.788487019,5098777.204557779,3605647.197718647,-153.79996193991272,-4617.718645440298,6452.882429933136,0.9950264952908454,-4.5698175453987726e-05,0.00043262940735066716,0.09960966023779973
1.385,9.356863411225188e-06,0.0005908242651015054,-0.0068752992661418755,-40.541862035015924,44.20356551162839,4.7046019706127895,-1659026.556848929,5098754.115963997,3605679.4625300025,-153.5448020426825,-4617.718867314675,6453.04211236806,0.9950282028671411,-4.588264172449216e-05,0.00043412708766003247,0.09959259474199156
1.3900000000000001,1.198782180918675e-05,0.0005886596388443722,-0.006868693221245586,-40.53098424944401,44.180781567136364,4.702086146776129,-1659027.3239353735,5098731.027369079,3605711.7281394284,-153.289775727182,-4617.719100057659,6453.2016579751935,0.9950299139011469,-4.6013932048311436e-05,0.0004355983456556749,0.09957549185756306
1.395,5.151232433153267e-06,0.0005722552186832971,-0.006859132139666647,-40.51774009141773,44.15825247413137,4.696786023494434,-1659028.0897469136,5098707.938773033,3605743.9945463734,-153.03484031684204,-4617.719318410052,6453.3611201425965,0.9950316229974633,-4.613813159940612e-05,0.0004370648745594735,0.09955840537394277
1.4000000000000001,1.475020433160062e-05,0.0005810435017574074,-0.006863954547175699,-40.50501907008815,44.13703711874077,4.701824088734767,-1659028.8542840204,5098684.85017589,3605776.261750409,-152.7800023905804,-4617.7195387567335,6453.520494045266,0.9950333294361091,-4.627524425156107e-05,0.00043848889554459454,0.09954134265410552
1.405,2.6551060853644378e-06,0.0005835624570425987,-0.00684329561671163,-40.49219647988791,44.105654890136044,4.692135335244846,-1659029.6175472026,5098661.7615777375,3605808.529751178,-152.52527051392804,-4617.7197223173935,6453.679813477394,0.9950350367714413,-4.63906709277568e-05,0.0004399371661646831,0.09952426789709098
1.41,-2.228778677054216e-05,0.0006052528971600355,-0.0068522745609074474,-40.48086961025389,44.07954542563017,4.696319334697299,-1659030.3795369898,5098638.672978671,3605840.7985482016,-152.27064441082342,-4617.7199039266125,6453.8389960367795,0.9950367386682095,-4.653678922792608e-05,0.00044138869578305343,0.09950724451455703
1.415,-2.856714549775136e-05,0.0005772005160196713,-0.006861211123473336,-40.467562327321595,44.05401085030481,4.6931620382384045,-1659031.1402539152,5098615.584378817,3605873.0681409435,-152.01612573757652,-4617.7200379750975,6453.998100689808,0.9950384424779949,-4.67503610490912e-05,0.00044288797619209416,0.09949019879169187
1.42,8.362831869417084e-06,0.0005863000213895951,-0.006832121605651028,-40.45522649122323,44.029057360631136,4.683073143290251,-1659031.899698512,5098592.495778325,3605905.338528972,-151.76171292212945,-4617.720158772426,6454.157110864985,0.9950401482462929,-4.697258591702426e-05,0.00044431591059484863,0.09947313081904731
1.425,2.5805200253648453e-06,0.0006016949674659303,-0.006855320299113674,-40.43073266716925,44.002061947862764,4.686318099005363,-1659032.6578712733,5098569.407177196,3605937.6097117714,-151.50739164508315,-4617.72029301274,6454.3160087266315,0.9950418464811204,-4.710517432408265e-05,0.00044577566806661617,0.09945613513805353
1.43,2.6546831054018674e-06,0.0006101967337009108,-0.006838019877921743,-40.42457669320206,43.97815470499267,4.687949379211571,-1659033.4147728456,5098546.318575443,3605969.881688876,-151.25323725964105,-4617.7204082391245,6454.474833203675,0.9950435501727687,-4.7256000481089015e-05,0.00044727228149790644,0.09943908172318086
1.435,-4.0224423356077036e-07,0.000597334562106089,-0.006841904580146704,-40.40902959332432,43.946706739946734,4.675790374739113,-1659034.1704038384,5098523.229973221,3606002.1544599026,-150.99915986336939,-4617.720480435482,6454.633577354837,0.9950452492602617,-4.740873630998142e-05,0.00044879006434691296,0.09942207131454013
1.44,1.95499061861466e-06,0.0005868148527157824,-0.0068487609838492605,-40.39539718622721,43.9221571837276,4.670325231065715,-1659034.9247647314,5098500.141370606,3606034.428024295,-150.74519736170575,-4617.720565762809,6454.79217963574,0.995046949034161,-4.7565883976596216e-05,0.00045027509068127947,0.09940505121791922
1.445,-1.7687656118325698e-05,0.0006050376489778801,-0.006834441414280806,-40.38613677618126,43.894345361117566,4.675695714344639,-1659035.6778560684,5098477.052767566,3606066.702381457,-150.49133741763004,-4617.720649812497,6454.950685220219,0.9950486502304896,-4.771456116834256e-05,0.0004517345328582605,0.0993880140344566
1.45,1.5799154204832215e-05,0.0005864899161523013,-0.006834262462164248,-40.365773770713666,43.86617089997812,4.669520061416414,-1659036.4296783623,5098453.964164258,3606098.977530939,-150.2375801545134,-4617.720673450782,6455.109107579995,0.9950503475526026,-4.791661346604867e-05,0.00045323442742314777,0.09937101246337786
1.455,1.4344184501929784e-06,0.0005959943399443126,-0.006835767169582302,-40.35502176151491,43.826339638928644,4.668514323746712,-1659037.1802322157,5098430.8755608145,3606131.253472263,-149.98396121113333,-4617.72070402026,6455.267422004805,0.9950520445625946,-4.80307551238078e-05,0.00045469650110178397,0.09935401127251373
1.46,7.409119065961473e-06,0.00056450748080917,-0.00681004129906711,-40.33835392804161,43.809448086925315,4.66178469962989,-1659037.929518281,5098407.786957368,3606163.5302047874,-149.730464914114,-4617.720674657037,6455.42558773394,0.9950537416410903,-4.818299338366251e-05,0.00045617864997150377,0.0993370063244549
1.465,1.7622359539556674e-05,0.0005981683688422031,-0.00681610669720099,-40.3215789163519,43.7828563507381,4.660946560500764,-1659038.677537117,5098384.698353999,3606195.807727974,-149.47706946181117,-4617.720672796509,6455.5836867982825,0.9950554320757797,-4.831251989410297e-05,0.0004575839577861077,0.09932006534082287
1.47,-1.3886807520283469e-05,0.0005639383924895953,-0.006825885910028057,-40.30170114322377,43.752136619323615,4.660800356941855,-1659039.4242892913,5098361.609750684,3606228.0860414314,-149.22380021066976,-4617.720653109893,6455.741696299652,0.9950571236884528,-4.842500448196334e-05,0.0004590755368073945,0.09930310922389929
1.475,-1.1077678316881735e-05,0.0006004498426023919,-0.006804982697639981,-40.2922572514295,43.73171503976961,4.6585255151148015,-1659040.1697754902,5098338.521147528,3606260.365144682,-148.97067936890298,-4617.720609677092,6455.899603957545,0.9950588174729088,-4.8607385974283355e-05,0.00046047414016014873,0.09928612879100789
1.48,-1.3229608092091753e-06,0.0005931308177175295,-0.006818919176585718,-40.2776556050955,43.71078585728482,4.644719725116298,-1659040.9139962858,5098315.43254462,3606292.645037285,-148.71763893505283,-4617.720553318904,6456.05743711163,0.9950605057361867,-4.8791817968340536e-05,0.00046196427078820163,0.09926920032122555
1.485,7.757090998181784e-06,0.0005850283460413051,-0.006813174098220757,-40.260947886043965,43.66476273172031,4.64256004511771,-1659041.6569521036,5098292.34394189,3606324.925718792,-148.46468815046072,-4617.720538791131,6456.215165658282,0.9950621971769649,-4.895018332377825e-05,0.0004634386132573037,0.09925223714295991
1.49,7.808045572386905e-06,0.0005658521105720512,-0.006802736793759368,-40.25030290746098,43.656226074799115,4.64310345638163,-1659042.3986435647,5098269.255339376,3606357.207188511,-148.2118962662343,-4617.720466756386,6456.372721927285,0.995063886911622,-4.9083943496839214e-05,0.00046489505317435153,0.09923528821790673
1.495,1.0857281302198874e-05,0.0006067632351622851,-0.006795046934898941,-40.236055236414025,43.6215086788906,4.638174137037018,-1659043.1390712366,5098246.166737208,3606389.4894459676,-147.95917256501733,-4617.720400438089,6456.530260845235,0.995065573788893,-4.921280736914701e-05,0.000466303802929253,0.09921836523065768
1.5,-1.0829996501667588e-06,0.0005934217851911145,-0.006788988735131865,-40.217933751462986,43.587794876342834,4.636453688674639,-1659043.8782356004,5098223.0781354355,3606421.772490779,-147.70657293250093,-4617.720308504697,6456.687663633312,0.9950672584217872,-4.9344224626106195e-05,0.0004678150829741527,0.09920146133572687
1.5050000000000001,2.729654471417281e-06,0.0005751557443675509,-0.00678536543436558,-40.202353638154044,43.559213394841116,4.63567163720372,-1659044.6161373255,5098199.989534193,3606454.056322304,-147.45411709563749,-4617.720188490642,6456.84494651552,0.9950689412772162,-4.950202951168633e-05,0.00046929021329704905,0.0991845724983717
1.51,6.9070345964885295e-06,0.0005635896548938154,-0.006792226824127417,-40.18591654821707,43.53633758902322,4.6342632600368034,-1659045.3527770825,5098176.900933613,3606486.3409399977,-147.20178566477384,-4617.720043327525,6457.002130872104,0.9950706229674933,-4.9645816224094854e-05,0.0004707208493986455,0.09916769264362109
1.5150000000000001,-1.0135005954285832e-05,0.0005765901862968392,-0.006778963610302676,-40.16895142686706,43.51195612232058,4.630111816016818,-1659046.0881554752,5098153.812333779,3606518.626343422,-146.94957148099553,-4617.719890369013,6457.15923881745,0.9950723060843252,-4.977635156996916e-05,0.00047212374747532775,0.09915079568770555
1.52,-4.340904283537799e-06,0.0005652600522129941,-0.006763538727068893,-40.153115673869635,43.48350398577276,4.624972075181743,-1659046.8222730942,5098130.7237347085,3606550.9125321615,-146.69747607453854,-4617.719738042263,6457.316256987844,0.995073985607665,-4.995248893577878e-05,0.00047355476390787625,0.09913393171619415
1.5250000000000001,-2.251882226878809e-05,0.000593963214747195,-0.006765701008262681,-40.14450566903058,43.45436470260614,4.623621843916939,-1659047.5551305353,5098107.635136417,3606583.1995057166,-146.4455003569193,-4617.7195785513595,6457.473165135786,0.9950756610351407,-5.011138612440367e-05,0.00047495903230603453,0.09911710608287819
1.53,-1.2077303357565157e-05,0.0005861461119189347,-0.006769646635816546,-40.13639375815727,43.431730791934434,4.622414018648672,-1659048.2867283311,5098084.546539019,3606615.4872635426,-146.1936179615974,-4617.719380603109,6457.62996515299,0.9950773366753701,-5.032261931147969e-05,0.0004764302004859831,0.09910027505991136
1.5350000000000001,-1.3854334413513916e-05,0.0005834528210160956,-0.006771280044229896,-40.1135127775506,43.40478318188381,4.610537319272133,-1659049.0170669141,5098061.457942673,3606647.775805164,-145.94181522188612,-4617.7191575872985,6457.786683473262,0.995079013016739,-5.050594519390976e-05,0.0004778845083709596,0.09908343418139573
1.54,7.913231784074434e-06,0.0005998935369521722,-0.006777155843429368,-40.107122254940165,43.360024529695245,4.6151579836628605,-1659049.746146833,5098038.36934735,3606680.0651300848,-145.6901524394769,-4617.7189717788815,6457.943284761715,0.9950806894784973,-5.0693026577707256e-05,0.00047933167563277807,0.09906658921331833
1.545,3.694498601599631e-06,0.0005871853195967594,-0.006766399629110142,-40.083703500537766,43.34426732229219,4.608325778165327,-1659050.4739687357,5098015.280753212,3606712.35523762,-145.43860854884443,-4617.718683477129,6458.099729335344,0.9950823670909711,-5.0830035590175886e-05,0.0004808251327051312,0.09904972957120645
1.55,1.3150035556946996e-05,0.0005808176985691297,-0.006750734096062642,-40.07551570628382,43.31913677441522,4.602547044408228,-1659051.2005332408,5097992.192160404,3606744.6461272356,-145.18719354655832,-4617.7184393336365,6458.25611691024,0.9950840417672964,-5.0974379762094e-05,0.0004822859320369956,0.09903289666547231
1.555,1.2611137150900214e-05,0.0005863390831681567,-0.006754860839695579,-40.052483003552176,43.27895346741068,4.5947751507929375,-1659051.9258408675,5097969.10356885,3606776.9377985275,-144.93585710253825,-4617.718182501647,6458.412399910521,0.9950857122877886,-5.10936058864707e-05,0.00048373323345436107,0.09901610269196974
1.56,2.176818814977775e-06,0.0005966254149787685,-0.006752787191452219,-40.033613805061556,43.25215438356873,4.5965430558410905,-1659052.6498922356,5097946.0149786025,3606809.2302508364,-144.68469015724529,-4617.717916475387,6458.568523656278,0.9950873835373498,-5.1215544377003535e-05,0.00048519413643397245,0.09899929842382392
1.565,-4.934908984556595e-06,0.0005910478021959749,-0.006734559035838783,-40.019480625134854,43.22993946660274,4.589085457637425,-1659053.372688117,5097922.926389746,3606841.52348356,-144.43366239323055,-4617.717625970887,6458.7245658295205,0.9950890539740092,-5.136598383292982e-05,0.0004866780465617376,0.09898249929723066
1.57,2.1299653364547107e-05,0.0005958708487163054,-0.006736596459821223,-40.01035972999415,43.20062118475298,4.588383361410842,-1659054.0942291042,5097899.837802311,3606873.8174962634,-144.18273250105236,-4617.717348215667,6458.88051539538,0.9950907196208405,-5.153271288711995e-05,0.000488146323495821,0.0989657454982495
1.575,7.010975185335396e-06,0.0005819369054419311,-0.006726793554960688,-39.99520262816564,43.169568473750466,4.588007268014772,-1659054.8145156838,5097876.749216366,3606906.1122884476,-143.93189930474838,-4617.717029985778,6459.036358270803,0.9950923854849038,-5.163537328016029e-05,0.0004896330892575629,0.09894898656979728
1.58,1.8724380567260006e-05,0.0005777110816423059,-0.006738539642680308,-39.98153616787746,43.13611945256953,4.5851661213063375,-1659055.5335484156,5097853.660632095,3606938.407859576,-143.68119342766147,-4617.716678300058,6459.192093243321,0.9950940486552179,-5.177012117219493e-05,0.000491081657617305,0.09893225201938492
1.585,8.641365168016301e-06,0.0005776608003754142,-0.006749270401415435,-39.961235845759006,43.11933293862163,4.588310304133014,-1659056.2513279223,5097830.572049663,3606970.7042090655,-143.43060925767264,-4617.716294316918,6459.34770243621,0.9950957144533958,-5.1874698444425185e-05,0.0004925226086703179,0.09891548820574787
1.59,-1.0919131184076035e-05,0.0005742819281024307,-0.0067362319660982896,-39.94245479826929,43.08143915830367,4.5773175145016065,-1659056.9678548318,5097807.483469161,3607003.0013365108,-143.1801545679192,-4617.715906369882,6459.503275710742,0.9950973826189891,-5.200436039424362e-05,0.0004939609396879958,0.09889869768087921
1.595,-1.2509696673325463e-06,0.0005868107848847084,-0.0067244155400970574,-39.93171255880687,43.05596401581468,4.582095253162794,-1659057.6831298233,5097784.3948906,3607035.299241416,-142.92984200081546,-4617.71551846339,6459.65868651008,0.9950990472776757,-5.218183230961688e-05,0.0004953860302230021,0.09888193958857966
1.6,-3.0944797766755556e-05,0.000594843481764007,-0.006741392774351348,-39.90000472535577,43.030626918001836,4.5810664746841185,-1659058.397153512,5097761.306314101,3607067.59792319,-142.67963355934452,-4617.7150806430645,6459.814022844152,0.995100708717212,-5.2338334824243105e-05,0.0004968446808082486,0.09886521085075499
1.605,5.105421393471424e-06,0.0005765025211144542,-0.00669766492644403,-39.896705162458254,43.002983911926094,4.566590388070552,-1659059.1099266354,5097738.217739753,3607099.897381462,-142.42961568521739,-4617.714658884932,6459.969286071413,0.9951023740549186,-5.25707146706888e-05,0.000498315973169693,0.09884843988539069
1.61,2.531868084362709e-05,0.0005614956629111215,-0.0067362135746024876,-39.87524432863222,42.97018002004636,4.5678249156942226,-1659059.8214497936,5097715.129167498,3607132.1976156924,-142.179647619264,-4617.714242883381,6460.124406119583,0.9951040283311801,-5.2708823441428695e-05,0.0004997505520725462,0.0988317776336314
1.615,-1.3664172948355683e-05,0.0005794251012774742,-0.0067165941842633305,-39.85590716684862,42.934355625953735,4.574192913719342,-1659060.5317235133,5097692.040597402,3607164.4986252594,-141.92984029075674,-4617.7137958686835,6460.2794206719445,0.9951056918708122,-5.279298673302757e-05,0.0005011527865721118,0.09881501943073866
1.62,1.2761393848901506e-05,0.0005811995973089707,-0.006702615792595126,-39.84906033656625,42.9010258441301,4.567449779942671,-1659061.2407486045,5097668.952029696,3607196.8004096365,-141.68019616151668,-4617.71328634049,6460.434330116023,0.9951073502526879,-5.297853482254606e-05,0.0005025899975051439,0.09879831005459386
1.625,-3.98356023911405e-06,0.000582869281523938,-0.0067179885317263065,-39.82485093113187,42.88108759523852,4.549881915419513,-1659061.9485256893,5097645.863464614,3607229.102968206,-141.43063780841564,-4617.712746200276,6460.589097739538,0.9951090049011435,-5.3098762937181346e-05,0.0005040381516855562,0.09878163539200499
1.6300000000000001,2.4206959061514794e-05,0.0006038276867739354,-0.0066903796750761866,-39.81276902065489,42.845316664650774,4.552661898893309,-1659062.6550552975,5097622.774902038,3607261.4063003547,-141.1812054247285,-4617.712284353278,6460.743761791364,0.9951106630594757,-5.326108037971859e-05,0.0005054863222419882,0.09876492247840786
1.635,8.137638661686731e-06,0.0005763128776570677,-0.006726690677708838,-39.794783460240225,42.815969678024494,4.5516520995720855,-1659063.3603380583,5097599.686341929,3607293.7104055216,-140.93189891122006,-4617.7117594144875,6460.898304984195,0.9951123140963768,-5.335840608972421e-05,0.0005069935967489959,0.09874827818310239
1.6400000000000001,-1.5609080840127377e-05,0.0005702058329811738,-0.00670506611483555,-39.7725755567844,42.795151557302134,4.5469567627935135,-1659064.0643746268,5097576.597784498,3607326.0152831534,-140.682728456858,-4617.71121309564,6461.05274761394,0.9951139738480576,-5.348896215468727e-05,0.0005084284484108166,0.09873154355002912
1.645,-4.541794196375484e-06,0.0005832985822897747,-0.00668828974360794,-39.75720616815141,42.75613177384273,4.551043488054896,-1659064.7671656806,5097553.509229745,3607358.320932816,-140.43369309420336,-4617.710688247197,6461.207117469019,0.995115627984197,-5.367706005424285e-05,0.0005098422484305452,0.09871486271718322
1.6500000000000001,-9.147062738716089e-06,0.0005730556207321418,-0.006682646806746716,-39.746734962424824,42.7247534807012,4.538358130950718,-1659065.4687119278,5097530.420677788,3607390.6273540086,-140.18480579571505,-4617.710094373863,6461.361359538671,0.9951172776839547,-5.384083460301946e-05,0.0005112913538204056,0.0986982235766733
1.655,-5.622747123291789e-06,0.0005677296105226615,-0.0066929737085441145,-39.731096716909086,42.70510855375118,4.536214213939851,-1659066.1690139659,5097507.332128789,3607422.9345460422,-139.93600937634756,-4617.70950512476,6461.515453988158,0.9951189257237535,-5.4013531474147135e-05,0.0005127138411263096,0.09868159845411129
1.6600000000000001,5.272830561702861e-06,0.0005651658282502229,-0.00670804126870625,-39.70668188698335,42.67515947301337,4.529476386647979,-1659066.8680722883,5097484.243582735,3607455.2425083825,-139.68731968091683,-4617.708916545436,6461.66948216259,0.9951205760383407,-5.4176159836003195e-05,0.0005141239463222161,0.09866494760872611
1.665,-1.3865766212353268e-05,0.000597906048971332,-0.006667139647513178,-39.69667346805791,42.64331389559679,4.526765948856826,-1659067.565887559,5097461.155039591,3607487.551240579,-139.43878857842847,-4617.7083409166435,6461.823396454385,0.9951222297930669,-5.431106912657022e-05,0.0005155303586798428,0.0986482592367023
1.67,-4.257237437447277e-06,0.000576383932061868,-0.00667090283932608,-39.67523354301055,42.609490514621704,4.527568765808423,-1659068.2624604304,5097438.066499418,3607519.8607420423,-139.1903599189389,-4617.707728592345,6461.977188746334,0.9951238731355448,-5.450161320896321e-05,0.0005170135077762783,0.09863167261239701
1.675,1.7036905409527646e-06,0.0006027057444797921,-0.006677989205095271,-39.65915944090982,42.5741822665842,4.534940044473694,-1659068.9577915627,5097414.977962385,3607552.1710121892,-138.94209306188995,-4617.707084456384,6462.13087005853,0.9951255171563106,-5.466295104324486e-05,0.0005184454825474539,0.09861507658887017
1.68,4.3265859881644665e-06,0.0005600951053497112,-0.006661325603567389,-39.63989825260733,42.55643703597482,4.51303337882067,-1659069.651881733,5097391.889428753,3607584.4820504854,-138.69397498311125,-4617.706368257856,6462.28444836479,0.9951271626115991,-5.4815957686955105e-05,0.0005199444095661552,0.09859846289679029
1.685,1.6177703312256556e-05,0.0005577394090663145,-0.00666339148147856,-39.628449191303716,42.524582201281085,4.517248281092521,-1659070.344731548,5097368.8008984765,3607616.7938563954,-138.445951097073,-4617.705742305636,6462.437915767068,0.9951288037363433,-5.4951914009883157e-05,0.0005213379777453934,0.098581890635525
1.69,-1.4686260381684827e-05,0.0005594127633218222,-0.006680621481230236,-39.60071648705304,42.485643345036415,4.513505172643437,-1659071.0363415382,5097345.7123714825,3607649.106429389,-138.19804498481076,-4617.705055228843,6462.59128159653,0.9951304450969198,-5.5057808967001925e-05,0.0005227286057059942,0.09856531319205965
1.695,-8.568649655669362e-06,0.0005557674509778663,-0.006653877107153275,-39.58904359991666,42.4596781129708,4.503122745570833,-1659071.7267124811,5097322.623847957,3607681.419768863,-137.95033216830507,-4617.704355278652,6462.744507996836,0.9951320904179515,-5.524092293674073e-05,0.000524115788872319,0.09854869289583887
1.7,1.1421921513186953e-05,0.000589452580990189,-0.006675726106164727,-39.5776133365718,42.42917267907233,4.501619401169291,-1659072.4158450838,5097299.535327904,3607713.7338741734,-137.70270887025058,-4617.703665769908,6462.897616114404,0.9951337288771371,-5.540788416938818e-05,0.00052549541387359,0.09853213909999672
1.705,-1.5026037667798984e-05,0.0005815921028470988,-0.006624430594659213,-39.561897493426954,42.39699200276906,4.510348759274608,-1659073.1037398395,5097276.446811387,3607746.0487447437,-137.45519347490585,-4617.7029407279615,6463.050612101617,0.995135372398596,-5.553343853112896e-05,0.0005269637630083104,0.09851553088897952
1.71,-1.2213391263773793e-06,0.0005757369432748891,-0.006647589549399399,-39.53630078600904,42.36482430786079,4.507386661658697,-1659073.7903973768,5097253.358298674,3607778.3643800775,-137.20782139504482,-4617.702144690543,6463.203521284408,0.9951370030160369,-5.57227876014164e-05,0.0005284060496813487,0.09849905030140023
1.715,5.0207342862828905e-06,0.0005784896702836347,-0.006643237660527846,-39.51424089654574,42.32553735648395,4.495293053740801,-1659074.475818485,5097230.269789953,3607810.680779678,-136.9606219141807,-4617.70134389348,6463.356318942144,0.9951386390699986,-5.5876381514766066e-05,0.0005298371656409842,0.0984825120532523
1.72,2.542241174714985e-06,0.0005820260046600622,-0.006632171501903682,-39.507985323523584,42.30089671334021,4.494442372736699,-1659075.1600039902,5097207.1812852165,3607842.9979428444,-136.71358008033278,-4617.700550696067,6463.508947751062,0.9951402737729843,-5.6015118065641903e-05,0.0005312766672614016,0.09846598459589642
1.725,-1.150038117572254e-05,0.0005531801465564627,-0.006644167071643952,-39.488988714311255,42.27027138410566,4.484403765180036,-1659075.8429544736,5097184.092784533,3607875.3158689286,-136.46661328249658,-4617.699722288728,6463.661485890525,0.9951419054706997,-5.616087654538177e-05,0.0005327243580378236,0.09844948464496575
1.73,2.133279476314087e-05,0.0005638516437687601,-0.006650411519376691,-39.46852848764081,42.24412864003879,4.483194150176169,-1659076.5246704507,5097161.00428796,3607907.6345573775,-136.21977758004596,-4617.698907061389,6463.813893633577,0.9951435398811791,-5.633448734062777e-05,0.0005340968264544241,0.09843295484623973
1.735,9.508272143446683e-06,0.0005455121714402674,-0.006633747245330144,-39.45847503761719,42.21474561474989,4.477820335014961,-1659077.205152602,5097137.915795484,3607939.9540076493,-135.97308291173155,-4617.698083582594,6463.966215059815,0.9951451755419156,-5.6429048218235365e-05,0.0005355039226881286,0.09841640943949008
1.74,-1.9590762155569324e-06,0.0005775264921466342,-0.006615386735274162,-39.433106253983354,42.183236755327634,4.483560078854427,-1659077.8844015165,5097114.827307176,3607972.2742192294,-135.72648294649545,-4617.697239520814,6464.118416953921,0.9951468068491309,-5.654849229976565e-05,0.0005368624857128486,0.09839990548226153
1.745,1.5027938330312689e-06,0.0005608708363354712,-0.006601744492624381,-39.41179123107494,42.14762584791064,4.477308266747691,-1659078.5624178853,5097091.738823184,3608004.595191607,-135.48006453282875,-4617.696357437456,6464.270534107488,0.9951484333201629,-5.670431647608783e-05,0.000538297877592477,0.09838344718722208
1.75,-1.0508368513369732e-05,0.0005796643800114626,-0.006647494477900437,-39.38689426140343,42.119019759650435,4.475050513756847,-1659079.23920255,5097068.650343623,3608036.9169242247,-135.23380132586448,-4617.6954668173175,6464.4225130147115,0.995150056185024,-5.684741298936511e-05,0.0005396926856103268,0.0983670228029722
1.7550000000000001,1.3614379768065745e-05,0.0005562076009047324,-0.006609435323583996,-39.37690675092282,42.09186905861227,4.462147897907706,-1659079.9147563083,5097045.561868518,3608069.2394164978,-134.98770207622286,-4617.694575367747,6464.574396187571,0.9951516899985644,-5.7025075148824335e-05,0.0005411312892115358,0.09835048458482529
1.76,1.5610736783929563e-05,0.0005518207370572392,-0.0066045192333032314,-39.37037202185409,42.048449827727346,4.460285771615716,-1659080.5890797724,5097022.473397834,3608101.562667858,-134.74168354867965,-4617.693698000199,6464.726147757847,0.9951533142141539,-5.713690385673468e-05,0.000542517471665406,0.09833404099676181
1.7650000000000001,-6.529136057948977e-06,0.0005656782981569645,-0.006583399875424424,-39.34517485784249,42.023823932885726,4.446328961737967,-1659081.2621734147,5096999.384931723,3608133.886677551,-134.49577332124798,-4617.692746623816,6464.877729639376,0.9951549369540167,-5.7242680732910754e-05,0.0005438932314418376,0.09831760961025925
1.77,1.930596632942824e-06,0.0005764221802158359,-0.006608463417693084,-39.31761702266079,41.99114958313627,4.460369484220167,-1659081.9340378635,5096976.29647023,3608166.211444874,-134.2500062629652,-4617.691850277765,6465.029199470436,0.9951565542084778,-5.740691649183741e-05,0.0005452980282941427,0.098301230767551
1.7750000000000001,-1.6795367195658842e-05,0.0005593709488498621,-0.0065818374576206784,-39.30843463057158,41.96712786026056,4.448623811275567,-1659082.6046739875,5096953.208013392,3608198.536969384,-134.0044432689849,-4617.690884894842,6465.180604713782,0.9951581773363221,-5.755277984877754e-05,0.0005467316300169677,0.09828478952946725
1.78,7.984863479843918e-06,0.0005549315648127573,-0.006580706797580478,-39.283888344385815,41.922212893097985,4.436425548721535,-1659083.2740824786,5096930.119561343,3608230.86325063,-133.75895325613033,-4617.689934540769,6465.331893603361,0.9951597936699188,-5.774100534518373e-05,0.0005481182125467053,0.09826841453511975
1.7850000000000001,-2.2226599531973928e-06,0.0005767677398584934,-0.006579963257730156,-39.27175412461552,41.896493672686326,4.448293560395087,-1659083.9422639662,5096907.031114047,3608263.1902878447,-133.5136417746974,-4617.688984165572,6465.482992299874,0.9951614094640767,-5.7866487925314035e-05,0.0005494998381339079,0.09825204229363263
1.79,-9.351133630102122e-06,0.0005502031806347273,-0.006597453799539616,-39.248831277301996,41.86249556727751,4.4392122780911825,-1659084.6092191953,5096883.942671692,3608295.518080416,-133.2684498819314,-4617.687957861465,6465.634036123529,0.9951630247728117,-5.8022728423739344e-05,0.0005509332827006423,0.09823567188607786
1.795,-2.4548936299969627e-05,0.0005630846599537083,-0.006567257737934944,-39.23414956248702,41.82834751416625,4.43296184417677,-1659085.2749488547,5096860.854234445,3608327.8466278603,-133.02341382481868,-4617.686941071899,6465.784941538569,0.9951646441406051,-5.819020401186142e-05,0.0005522988837359075,0.09821925795049517
1.8,-1.456376753445537e-05,0.0005545377709143143,-0.006570459151054466,-39.214969103725295,41.795436683324446,4.442711366425017,-1659085.9394536405,5096837.7658023285,3608360.1759294868,-132.77850047221472,-4617.685905523186,6465.93570919032,0.9951662558023968,-5.8398611704054576e-05,0.0005536928052030314,0.09820291913236709
1.805,-1.9616917958337706e-05,0.0005559602152587616,-0.0065694811580580955,-39.20178948382689,41.761407812388654,4.42948435174292,-1659086.6027342626,5096814.677375563,3608392.5059847413,-132.53374838821935,-4617.684800173613,6466.086392453901,0.9951678679931192,-5.8580083230706444e-05,0.0005550679135452484,0.09818657231014333
1.81,-1.1383376326501056e-05,0.000560283549375393,-0.006567395234550459,-39.17355013860297,41.73681191254034,4.422737931259751,-1659087.264791391,5096791.588954312,3608424.836793016,-132.2891030440294,-4617.683700728669,6466.236917674738,0.9951694796706692,-5.877447437898302e-05,0.0005564453204283412,0.0981702279012134
1.815,4.112338620419383e-06,0.0005588899958618867,-0.006568039979659278,-39.15608623277132,41.71152874945902,4.41743752286965,-1659087.925625708,5096768.500538475,3608457.168353694,-132.04462367430793,-4617.682634114318,6466.3873534678905,0.9951710905611868,-5.894943924292561e-05,0.0005578355043138548,0.09815388864314983
1.82,-6.540805763487399e-06,0.0005676946258471892,-0.006550059630480812,-39.141270570641396,41.66720801832518,4.411020945279705,-1659088.5852379294,5096745.412127961,3608489.5006663087,-131.8002649395222,-4617.681571055687,6466.537692386634,0.9951727013439028,-5.908551081442314e-05,0.0005592260233041427,0.09813754773294847
