t_s,gyro_x_radps,gyro_y_radps,gyro_z_radps,accel_x_mps2,accel_y_mps2,accel_z_mps2,ins_pos_ecef_x_m,ins_pos_ecef_y_m,ins_pos_ecef_z_m,ins_vel_ecef_x_mps,ins_vel_ecef_y_mps,ins_vel_ecef_z_mps,ins_quat_w,ins_quat_x,ins_quat_y,ins_quat_z
0.0,5.519894285752052e-06,0.0006671768544037213,-0.007304749510850092,-41.75425427197674,48.224121998294905,5.143588246425437,-1656201.7170614246,5097264.758841336,3591181.9960583495,-226.82286500164605,-4617.160284474699,6406.276788851849,0.9945218953682734,0.0,0.0,0.10452846326765354
0.005,8.712365417091453e-06,0.0006450555964462292,-0.007305575498990474,-41.753533719679524,48.22961780085207,5.142635894418938,-1656202.8505043532,5097241.673031229,3591214.0278771087,-226.55430640081983,-4617.16375837887,6406.450714740437,0.9945238040866575,-1.6062328896699855e-07,1.6602474395434358e-06,0.10451030141675745
0.01,-8.510792169709288e-06,0.0006595147363688578,-0.0073178956238782586,-41.76314291518545,48.2202536461986,5.1490552073560805,-1656203.9826044817,5097218.587203691,3591246.0605655676,-226.28574506182912,-4617.167256647514,6406.624668979239,0.9945257126865613,-3.0752936163380507e-07,3.2663286994627498e-06,0.10449213747705577
0.015,-8.76539421608689e-06,0.0006028972797932562,-0.007322519975288317,-41.77234855894074,48.22093940802652,5.145491451823563,-1656205.113361773,5097195.501358812,3591278.0941237477,-226.0171714751292,-4617.1706950341,6406.798603016908,0.9945276241697735,-5.010348835746071e-07,4.903860703522907e-06,0.10447394287058884
0.02,-1.9405424575288192e-06,0.0006493685984910816,-0.007290463605580282,-41.77721481542172,48.21575633054848,5.145507195486514,-1656206.2427760924,5097172.415496733,3591310.1285515805,-225.74855623693352,-4617.174136659718,6406.972530052233,0.9945295365259317,-6.803858616523099e-07,6.400557140508099e-06,0.10445573673133282
0.025,2.0989917772881274e-05,0.0006575204675058128,-0.007313717912756354,-41.78303138147326,48.2085705412246,5.132323550095638,-1656207.370847318,5097149.329617484,3591342.1638490055,-225.47993407744224,-4617.177563037383,6407.146440007037,0.9945314401759067,-8.549030244915569e-07,8.014578614775052e-06,0.10443761025929613
0.03,-9.320468241449644e-06,0.000648208860238875,-0.007299418054770958,-41.77302555024944,48.20982833174717,5.1311540687223705,-1656208.4975753722,5097126.243721027,3591374.2000158234,-225.21128750525466,-4617.181019600948,6407.320287036556,0.9945333495632408,-9.745363981843784e-07,9.654855267897219e-06,0.10441942593385048
0.035,-4.449281710377926e-06,0.0006623949404681681,-0.007312816070967652,-41.79558458015556,48.206892765985685,5.142490764579808,-1656209.622960309,5097103.1578072,3591406.2370519224,-224.9426872190437,-4617.184510887019,6407.494152634089,0.9945352548832788,-1.1671003689987716e-06,1.126406770993241e-05,0.10440127712825409
0.04,-1.0029498946182434e-05,0.00063499096431381,-0.007315248416284476,-41.78162218943176,48.20697004846754,5.1304810833353125,-1656210.7470020552,5097080.071876146,3591438.2749573705,-224.67401126667374,-4617.187910849694,6407.6680266924395,0.9945371633653886,-1.3512559120979547e-06,1.2909822896614127e-05,0.10438309497536973
0.045,1.161376619110737e-05,0.0006610530853879027,-0.007311911309449264,-41.79576341912329,48.19975996520832,5.1263929142929445,-1656211.8697005522,5097056.9859278845,3591470.3137321565,-224.40538756501468,-4617.191393763134,6407.841887613797,0.9945390721479684,-1.542134587181052e-06,1.4485986188094704e-05,0.10436490673993895
0.05,-6.852678349332603e-06,0.0006637312980806399,-0.007314634168231822,-41.80071075351566,48.196923590849714,5.141665451612673,-1656212.991055806,5097033.899962266,3591502.3533761348,-224.13671391813145,-4617.194853814109,6408.015703794395,0.9945409797239065,-1.6860003859156372e-06,1.613259597520273e-05,0.1043467267656681
0.055,-1.2656737383033538e-05,0.000654888547118456,-0.007311659139859329,-41.808964983141124,48.194546397101185,5.132169315045741,-1656214.1110677114,5097010.813979522,3591534.393889282,-223.86804824512714,-4617.198243579477,6408.189555039166,0.9945428876747844,-1.8764790403242312e-06,1.7781047443479177e-05,0.10432853998697753
0.06,1.8537116576482126e-05,0.0006359100390626031,-0.007321286974503735,-41.80474437384028,48.193611500233935,5.140056508287741,-1656215.2297361898,5096987.7279797755,3591566.4352715975,-223.59934317957652,-4617.2016549465625,6408.36337110791,0.9945447945149354,-2.0790821477116583e-06,1.9405998859515114e-05,0.10431036057041292
0.065,-1.974565160885128e-05,0.0006546059682767814,-0.007305777736939512,-41.81674900802913,48.18180788012866,5.13307946972094,-1656216.3470612331,5096964.641963017,3591598.477523068,-223.3306741336513,-4617.20504842598,6408.537217170912,0.994546703531543,-2.199177371247081e-06,2.099189738336575e-05,0.10429215717898094
0.07,1.5134771115833274e-05,0.0006559083046868688,-0.007316126721614946,-41.812575788720345,48.18797230951224,5.146254490579263,-1656217.463042842,5096941.555929336,3591630.520643595,-223.0619694155467,-4617.208424341864,6408.710993659502,0.9945486081681624,-2.4193313793352254e-06,2.2614299441143787e-05,0.10427399231597151
0.075,-1.4076102167557904e-05,0.0006693794476281756,-0.007322092774808966,-41.82084167223541,48.181658591985034,5.138400521380169,-1656218.5776810013,5096918.469878831,3591662.5646331883,-222.79329426895936,-4617.211777619471,6408.884843663103,0.9945505151678317,-2.5530997815574194e-06,2.4249032323199772e-05,0.1042558016844474
0.08,1.9251811053054028e-05,0.0006400508763746606,-0.007305990103037497,-41.82061781781421,48.17093248805906,5.134091628870843,-1656219.6909757094,5096895.383811544,3591694.6094919154,-222.52458899170438,-4617.215137008983,6409.058647124078,0.9945524233857718,-2.7630088792868293e-06,2.590964598183941e-05,0.10423759618556289
0.085,7.535200669580191e-06,0.0006340807195222962,-0.00729440657309092,-41.82117710821674,48.17404409112123,5.141983852571391,-1656220.8029269425,5096872.297727462,3591726.655219542,-222.25590417380974,-4617.218496010208,6409.2324033569175,0.9945543270743908,-2.8824081914883546e-06,2.7506022792843768e-05,0.10421943068696933
0.09,2.7975380499166385e-06,0.0006674199463401649,-0.007317952164972464,-41.828249607759666,48.167413658119635,5.137366248250494,-1656221.9135347693,5096849.21162663,3591758.701816055,-221.9872265933512,-4617.221836444536,6409.406201900283,0.9945562274114726,-3.029383204199867e-06,2.9084502818602233e-05,0.10420129395537106
0.095,-2.6924436542695447e-05,0.0006553732812304743,-0.007308929078957225,-41.83100691373591,48.161158390148096,5.1419861970604686,-1656223.022799158,5096826.125509109,3591790.749281466,-221.7185289134117,-4617.22517197481,6409.579962653695,0.9945581335453517,-3.1968245840077553e-06,3.074464281893752e-05,0.10418309864528674
0.1,5.30453847281831e-06,0.0006653008705335544,-0.007310156335142446,-41.83940907222254,48.14947557965394,5.135733207031861,-1656224.1307200843,5096803.039374989,3591822.7976156645,-221.4498416085678,-4617.2284759442355,6409.753716716886,0.9945600369945939,-3.4350282008989357e-06,3.23670887905816e-05,0.10416492573742973
0.105,2.2329019184132066e-06,0.0006618222752626235,-0.007291851994994934,-41.8440555337893,48.15535064009879,5.143111787127674,-1656225.2372975268,5096779.953224381,3591854.846818473,-221.1811354107216,-4617.231767219996,6409.92740679831,0.9945619404280719,-3.5956830559925623e-06,3.402261152172186e-05,0.1041467497403613
0.11,3.170622939043288e-05,0.0006299545368567356,-0.007323613530522027,-41.84629908712842,48.143703575549985,5.131116019590088,-1656226.3425313965,5096756.867057364,3591886.896889854,-220.9124124586922,-4617.235039827169,6410.101145465669,0.9945638387618942,-3.763067974023285e-06,3.566868545741114e-05,0.10412861922060197
0.115,-7.019367900370977e-06,0.0006696114321678172,-0.00729305726135537,-41.84591743019435,48.1591134622055,5.136598211518431,-1656227.4464216547,5096733.780873926,3591918.9478297415,-220.6436907333279,-4617.2383351129265,6410.274809531413,0.9945657450324942,-3.848877099748293e-06,3.7243195373933254e-05,0.10411040969130048
0.12,-1.2405004270440498e-05,0.000645604533827015,-0.007320414059663696,-41.84362367955497,48.13383425724472,5.1393386809580885,-1656228.5489682686,5096710.694673961,3591950.999638165,-220.3749548725821,-4617.241651345929,6410.4485598728625,0.9945676430113237,-4.04129299949095e-06,3.8906229701515705e-05,0.10409227610573955
0.125,-1.7099399936689052e-05,0.0006512878057599572,-0.007296413578392767,-41.84859460821684,48.13771522914773,5.130299091161193,-1656229.6501713668,5096687.608457556,3591983.0523151285,-220.1062843585819,-4617.244910423678,6410.622225426281,0.9945695477769568,-4.240855176198178e-06,4.050817102100455e-05,0.10407407446546417
0.13,-8.188756693491083e-06,0.0006658209135888873,-0.007322030219206486,-41.853727648956486,48.1314588068648,5.140724769759995,-1656230.750031023,5096664.522224754,3592015.105860405,-219.83757824607176,-4617.248210381966,6410.795885286492,0.9945714459627609,-4.453565881543769e-06,4.2123022192100327e-05,0.10405593246595657
0.135,-3.7709031697432864e-06,0.0006573474707153497,-0.007298477834653386,-41.84973186877658,48.12495690709984,5.132151188057358,-1656231.848547167,5096641.435975601,3592047.160274,-219.56887928241613,-4617.251450999094,6410.969552605624,0.9945733504762523,-4.647904244891664e-06,4.377632661219918e-05,0.10403772673637302
0.14,1.6346523656060828e-05,0.0006561316676589063,-0.007299942495743766,-41.857838146819056,48.1231737736515,5.127357337806016,-1656232.9457198763,5096618.34971016,3592079.215555834,-219.30020443402034,-4617.254725443256,6411.143181136173,0.9945752485299726,-4.829051436297043e-06,4.5409711698653764e-05,0.10401957953280624
0.145,-2.7771331976919337e-06,0.0006571646042830641,-0.007312436938697462,-41.85360638932274,48.11570076976439,5.141149697594733,-1656234.0415491269,5096595.263428334,3592111.2717057625,-219.03149575438223,-4617.2580046024805,6411.316790177249,0.9945771466310913,-4.959861887092259e-06,4.704530524881406e-05,0.10400142865026314
0.15,-4.098670423581666e-06,0.0006673257503063045,-0.007301101456774334,-41.86970660308686,48.11192485552851,5.135586566741257,-1656235.1360349727,5096572.177130254,3592143.328723786,-218.76284266733867,-4617.261227649441,6411.4904192128515,0.9945790476459516,-5.138492253107931e-06,4.867849474704049e-05,0.10398324666825966
0.155,-2.9451423422484225e-05,0.0006588792380064984,-0.007319298146243667,-41.86043613266401,48.115810062131715,5.139217706395559,-1656236.229177386,5096549.090816091,3592175.386609863,-218.49412265344372,-4617.264437425575,6411.664011691986,0.9945809453782095,-5.323048643376503e-06,5.033660598751705e-05,0.10396509283638637
0.16,1.4969012261900007e-05,0.0006407306974087311,-0.007316583444476624,-41.87759595251455,48.09507534567691,5.1223766022408155,-1656237.3209763102,5096526.004485829,3592207.4453640077,-218.22544697674368,-4617.267667468029,6411.837646132177,0.9945828475058236,-5.568450378281951e-06,5.196712561511965e-05,0.10394689372760457
0.165,-1.2942367487349657e-05,0.0006622418514827056,-0.007304517642535489,-41.86884513116147,48.08878961132628,5.127157709725311,-1656238.4114317182,5096502.918139441,3592239.50498598,-217.95671618432962,-4617.27088784481,6412.011142794437,0.9945847485954348,-5.698686039043112e-06,5.356406311078995e-05,0.10392870132822803
0.17,1.9196655301678298e-05,0.0006389486963686575,-0.007292570316170355,-41.866706708619375,48.084616593555424,5.1288612787440675,-1656239.5005436272,5096479.831776972,3592271.5654754443,-217.68804748162304,-4617.274099685405,6412.184642946866,0.9945866462119523,-5.90390972944251e-06,5.520723544111454e-05,0.10391053889844835
0.17500000000000002,2.9065350520666756e-05,0.0006492742077298384,-0.007298009893726356,-41.872719548724085,48.08720540406516,5.13042610171957,-1656240.5883122545,5096456.745398457,3592303.626832404,-217.419403468949,-4617.277306307884,6412.358140870676,0.994588540394765,-6.023168150944873e-06,5.680083923463871e-05,0.10389240613633474
0.18,-4.969884815305301e-06,0.0006311013793094094,-0.0073117733858848915,-41.87343323167686,48.08065739686658,5.127955854964134,-1656241.674737601,5096433.659003924,3592335.6890568975,-217.15073513272705,-4617.280506859972,6412.531656612115,0.9945904356556713,-6.120570970477103e-06,5.8422680221624135e-05,0.1038742598124827
0.185,1.1204830817671197e-06,0.000657480017609202,-0.007300987292302886,-41.87541200359814,48.07606118527097,5.129284753907547,-1656242.7598196333,5096410.572593388,3592367.7521489053,-216.88207772361008,-4617.283707307149,6412.70514638877,0.9945923341586363,-6.297884374299975e-06,5.9990496212842226e-05,0.10385607923637621
0.19,1.3996071065331135e-05,0.000646033614618535,-0.007298784088853518,-41.89199773920131,48.06340611147059,5.12619598047394,-1656243.8435583948,5096387.486166884,3592399.8161083404,-216.6134268711864,-4617.286894580735,6412.8786276401215,0.9945942295228153,-6.466901530162562e-06,6.162548363663299e-05,0.10383792544343529
0.195,1.3344417492223326e-05,0.0006267753186099975,-0.00729771555890861,-41.87997992163137,48.054745076255294,5.131370240901476,-1656244.9259537777,5096364.399724553,3592431.8809350166,-216.344726292737,-4617.290037550257,6413.052042835692,0.9945961239831326,-6.600931953798372e-06,6.323535219531127e-05,0.10381977709207017
0.2,-2.6248094101744023e-06,0.0006195392017388045,-0.007298760945282167,-41.88909384830941,48.05126457506464,5.12983463278522,-1656246.0070058615,5096341.313266531,3592463.946628763,-216.07610724867683,-4617.293171718149,6413.225455756889,0.994598017835524,-6.731584056596684e-06,6.47971660476805e-05,0.10380163136319034
0.20500000000000002,-2.246030179631203e-06,0.0006486733889935182,-0.007303006577259883,-41.88998626617105,48.048535161150575,5.121229440801388,-1656247.0867147725,5096318.226792871,3592496.0131895286,-215.80745711633003,-4617.296291812392,6413.398850557138,0.994599911626583,-6.900065928196546e-06,6.633684321247773e-05,0.10378348300286344
0.21,7.3330888339540706e-06,0.0006536287497615323,-0.007296583089211135,-41.88683259963188,48.043660188057125,5.130017228057536,-1656248.165080421,5096295.140303531,3592528.080617199,-215.53880223935366,-4617.299444386481,6413.5722175382525,0.994601806180538,-7.07516578568308e-06,6.794906070950789e-05,0.10376532405037246
0.215,-9.990812681559668e-07,0.0006537660457919881,-0.007290960399856096,-41.88899142421309,48.02320566836843,5.123748094067865,-1656249.2421028938,5096272.053798509,3592560.148911743,-215.2701869444374,-4617.3025642993625,6413.745600112742,0.9946036987336004,-7.227731513476685e-06,6.957608477524237e-05,0.1037471810333652
0.22,-5.293620054795358e-06,0.0006258179771456509,-0.007290682302241235,-41.897000127555565,48.029659776257624,5.13151712365769,-1656250.3177823527,5096248.967277938,3592592.2180729643,-215.0015966254112,-4617.305664366817,6413.918888447896,0.9946055894947862,-7.401049889033313e-06,7.120128920920477e-05,0.10372905196390136
0.225,-1.4138379679528037e-05,0.0006495207273172381,-0.007292679078036982,-41.89067920726562,48.010879167757594,5.120072230352808,-1656251.392118779,5096225.88074193,3592624.2881007507,-214.73297393292222,-4617.308738627798,6414.092225924072,0.9946074798557712,-7.577799076651628e-06,7.275588669015922e-05,0.10371092355248576
0.23,-2.3768728026070232e-05,0.0006536508456613802,-0.007314368011296174,-41.89634707912903,48.0200149190136,5.123249192197294,-1656252.465112225,5096202.794190496,3592656.358994987,-214.46440444038294,-4617.31183477012,6414.265468696342,0.994609370396955,-7.78268687039941e-06,7.436712819498199e-05,0.10369279014248227
0.23500000000000001,-2.2247889888239023e-06,0.0006820608518075551,-0.0072989744011231865,-41.89359526482911,48.00451396261455,5.123469562877798,-1656253.5367627419,5096179.707623574,3592688.4307555603,-214.1958022608445,-4617.3149341745475,6414.438760641284,0.9946112662254192,-8.012595439390301e-06,7.598614239460758e-05,0.10367460276930326
0.24,1.5163603926383724e-06,0.0006535978908809169,-0.007308641482532785,-41.89969222175133,47.9966322612206,5.116300846945733,-1656254.6070703631,5096156.621041215,3592720.503382464,-213.9272462859233,-4617.318009624311,6414.612000779753,0.9946131577244526,-8.196294960476532e-06,7.768138305579039e-05,0.10365645363322519
0.245,-4.773272875238452e-06,0.0006593944312427686,-0.007306879943237533,-41.90019122172648,47.999219992002764,5.121139497328066,-1656255.6760351628,5096133.534443467,3592752.5768754454,-213.6586735406725,-4617.321089347952,6414.785191807487,0.9946150513998405,-8.363317941217829e-06,7.930681888985446e-05,0.10363828042463864
0.25,2.0838534265977244e-06,0.0006583698494109806,-0.007285963563223471,-41.90055934759147,47.98963567761871,5.12083926055858,-1656256.74365711,5096110.44783034,3592784.651234461,-213.3901053429734,-4617.324161482328,6414.958414541345,0.9946169442828876,-8.547481838368842e-06,8.094503843284881e-05,0.10362011156244108
0.255,1.1830814326892695e-05,0.0006438224860853392,-0.007291717946547366,-41.90565997753834,47.98287619726354,5.121036198908312,-1656257.809936268,5096087.36120189,3592816.726459511,-213.12155791384527,-4617.327218759781,6415.131605350524,0.99461883141425,-8.714325546720935e-06,8.258248707000095e-05,0.10360199467358329
0.26,1.911091714156309e-05,0.0006564195990466378,-0.007302710265243001,-41.89709970760217,47.966282479317826,5.119932708079603,-1656258.8748726768,5096064.274558203,3592848.802550457,-212.8530055410089,-4617.330255891713,6415.3047730231,0.9946207197063479,-8.853166323393693e-06,8.418628736185184e-05,0.10358386343981002
0.265,1.0264359679883393e-05,0.0006658801055980629,-0.007309492058308596,-41.903129577563284,47.96630981637604,5.116683516921913,-1656259.9384665047,5096041.187899354,3592880.8795071035,-212.58452563994956,-4617.333283701294,6415.477885698371,0.9946226105088752,-8.977169201920621e-06,8.582329600900685e-05,0.10356570483650843
0.27,2.018680933017309e-05,0.0006578907751629463,-0.007306112836893209,-41.909446215335265,47.95440309718449,5.114020886397035,-1656261.0007178683,5096018.101225348,3592912.957329299,-212.3160198441104,-4617.336318533057,6415.650992362879,0.9946245027305327,-9.12562045778644e-06,8.748153805949968e-05,0.10354752933674614
0.275,-6.2667992220329265e-06,0.0006588128086678578,-0.007305099211132545,-41.9097014277707,47.95248998477515,5.117679989337923,-1656262.0616266916,5095995.014536226,3592945.036016895,-212.04750940602722,-4617.3393302374725,6415.82404601346,0.994626393744683,-9.2473300040882e-06,8.91224828109866e-05,0.10352936220279185
0.28,8.217905529221349e-06,0.0006326159303993534,-0.00728702120802866,-41.90297477373571,47.942983334777765,5.11915377364106,-1656263.1211929934,5095971.927832078,3592977.115569785,-211.77901131172212,-4617.342329199562,6415.997110033494,0.9946282841611888,-9.435056608477253e-06,9.075887344003287e-05,0.10351119756034234
0.28500000000000003,-1.0675776120146568e-05,0.0006582938606271828,-0.007307569364775851,-41.91384488195967,47.9311599245569,5.116888321200894,-1656264.1794169412,5095948.841112952,3593009.1959879436,-211.51056785132567,-4617.345321099076,6416.170153450416,0.9946301695722811,-9.579982689667799e-06,9.233387239769945e-05,0.10349307783274875
0.29,7.920397319812681e-06,0.0006463236799833245,-0.007291660351327555,-41.91641307890561,47.93442009596909,5.116096410050724,-1656265.23629861,5095925.754378951,3593041.277271181,-211.24209968881704,-4617.348279117732,6416.343141373721,0.9946320599598528,-9.778537795404701e-06,9.39678325293423e-05,0.10347490697964609
0.295,-1.154488901277038e-05,0.0006777636564195907,-0.007293411236252919,-41.917195298555406,47.91301552620519,5.115526717001514,-1656266.291837905,5095902.667630131,3593073.3594194,-210.97361836215384,-4617.351249021457,6416.516146217152,0.994633945901346,-9.927751751464298e-06,9.557683879807235e-05,0.1034567756467692
0.3,-3.129478804395551e-05,0.0006612681602367853,-0.007310227669108244,-41.91331956145736,47.90357802964087,5.122725453874837,-1656267.346034894,5095879.580866566,3593105.4424324404,-210.70517713366237,-4617.354177249859,6416.689070060583,0.9946358319543711,-1.0133499905409802e-05,9.725898862146419e-05,0.10343863992936837
0.305,3.2463055846947018e-06,0.0006336078400631941,-0.007296643641491592,-41.91804724433482,47.909734326514986,5.112373811045934,-1656268.3988897991,5095856.494088448,3593137.5263100835,-210.436784979374,-4617.357070105738,6416.861987148867,0.9946377220253471,-1.0384096358727459e-05,9.889501320049336e-05,0.10342046236686187
0.31,-1.1039568111948168e-06,0.0006511378019346715,-0.007305641942526507,-41.91013821170783,47.89694740987068,5.116593921906124,-1656269.4504026428,5095833.407295736,3593169.611052312,-210.16835245356629,-4617.360014717809,6417.034904327593,0.9946396082576936,-1.0541648155620026e-05,0.00010047118874400656,0.10340231853975003
0.315,-1.5763829622766215e-05,0.000637723410189738,-0.007282371279249788,-41.91143215375523,47.884549378172295,5.111722481607561,-1656270.5005734973,5095810.320488357,3593201.6966590635,-209.8999893317971,-4617.362936375423,6417.207796254899,0.9946414964776885,-1.0714551164113796e-05,0.00010208982943461801,0.10338415230338528
0.32,2.4896287612214753e-06,0.0006155452591525926,-0.007270089711690112,-41.917463359468314,47.873564165627336,5.11155561852377,-1656271.5494025757,5095787.233666385,3593233.783130132,-209.63164207004164,-4617.36585284565,6417.380631261007,0.9946433783528523,-1.0920434435552355e-05,0.00010367132544135007,0.10336604390139449
0.325,-1.8860447104158313e-06,0.0006309555509486013,-0.007310810352670384,-41.91547564995777,47.867616024307395,5.111220384831917,-1656272.596889913,5095764.146829905,3593265.8704652707,-209.36329288977805,-4617.368739054823,6417.553424155189,0.9946452567289527,-1.1075194147115515e-05,0.00010520239034059515,0.10334796600027045
0.33,-1.37707685037162e-05,0.0006472096418833552,-0.007286648870350478,-41.91873694731245,47.86595885897307,5.11208409421977,-1656273.643035566,5095741.059978997,3593297.9586643353,-209.09496826828743,-4617.37162367654,6417.726201714134,0.9946471452890367,-1.1244826727684198e-05,0.0001067706429688779,0.10332978680880706
0.335,1.2998995411123235e-05,0.0006351903352878681,-0.007287436176863928,-41.912464469127436,47.84745893491157,5.110102205233187,-1656274.6878395828,5095717.973113686,3593330.0477272905,-208.82663845720668,-4617.374501008865,6417.898980276627,0.9946490272692408,-1.1448204450997806e-05,0.00010837624383849582,0.10331166766576538
0.34,-3.0242198696791122e-06,0.0006477019804246087,-0.007283310185381495,-41.916174665062556,47.85017203256622,5.1041526149702054,-1656275.7313021119,5095694.8862340255,3593362.13765397,-208.55837316789712,-4617.377363396613,6418.071691654399,0.9946509091241499,-1.1581911748182102e-05,0.0001099588712426838,0.10329354652352767
0.34500000000000003,-3.5571680358866578e-06,0.0006363897742283132,-0.00728090524428999,-41.916454520937954,47.84025351979539,5.108063480751044,-1656276.7734232547,5095671.799339981,3593394.228444205,-208.29008396743384,-4617.380254370681,6418.244402317313,0.9946527895771715,-1.1758692601884373e-05,0.00011156847279076991,0.1032754356106042
0.35000000000000003,-1.0979150371388514e-05,0.00064498550285494,-0.007293579262544489,-41.91515833898973,47.824771041699286,5.101416988091223,-1656277.8142030193,5095648.712431561,3593426.3200979396,-208.02182186902172,-4617.383113267236,6418.417091507739,0.9946546690801819,-1.1933877344261359e-05,0.00011314980747753198,0.10325733064387042
0.355,4.728183643730987e-06,0.0006519755085219937,-0.007277410490669139,-41.91935969778972,47.826071495535764,5.110628327281238,-1656278.8536415503,5095625.625508848,3593458.4126149397,-207.7535905237582,-4617.3859722387815,6418.589708464254,0.9946565515195747,-1.2129740371239312e-05,0.00011475060026714432,0.10323919412876512
0.36,-1.86908732332889e-05,0.000632278617506653,-0.0072755239269626844,-41.90794669350145,47.80811570927279,5.108153017917719,-1656279.8917389144,5095602.538571928,3593490.5059951134,-207.48535507570045,-4617.3887958174455,6418.762360949497,0.9946584294517283,-1.2288344355392557e-05,0.00011637282917728809,0.10322109778035893
0.365,1.0100133293033722e-05,0.0006269527287169979,-0.007261248684403886,-41.92073882610079,47.80247759071471,5.101546884296453,-1656280.9284953158,5095579.451620893,3593522.6002383945,-207.21720551960655,-4617.391618181447,6418.93495144345,0.9946603065703441,-1.2500099855633538e-05,0.00011794003555797579,0.10320300609616347
0.37,-6.130401173308265e-06,0.0006626296459621271,-0.007289583887206205,-41.91000783863622,47.78469780092537,5.112092056973347,-1656281.963910844,5095556.364655762,3593554.6953445175,-206.94900574783154,-4617.394433956169,6419.107497751832,0.9946621796774229,-1.263888384488686e-05,0.00011950142701614905,0.10318494986685636
0.375,-4.342862030264206e-06,0.0006631711372118502,-0.00730892138938972,-41.92208390087615,47.77928446254388,5.102623350169776,-1656282.9979856212,5095533.277676687,3593586.7913133083,-206.6809051601789,-4617.397196182109,6419.280018575682,0.9946640597511012,-1.28272393444352e-05,0.00012114734687262354,0.10316682314698006
0.38,1.0084815516839497e-05,0.0006360901460385604,-0.00726776735977132,-41.90976088322149,47.76900599670416,5.092424288113812,-1656284.030719768,5095510.190683784,3593618.8881445765,-206.41275350189343,-4617.39996506738,6419.45248877345,0.9946659444781943,-1.3011295353867558e-05,0.0001227950736098553,0.10314864830611147
0.385,-7.594704268650983e-06,0.0006291035131443847,-0.007274957504815299,-41.91658938061714,47.763857545580684,5.105021951151333,-1656285.0621133214,5095487.103676914,3593650.985838067,-206.14466793100658,-4617.402782622403,6419.624907326613,0.9946678182687574,-1.3152478507301306e-05,0.00012437918078410308,0.10313057576345622
0.39,7.562013496771733e-06,0.0006084545138830681,-0.007261903582378343,-41.91912712830342,47.74816428558951,5.102415600659297,-1656286.0921664478,5095464.01665613,3593683.0843936913,-205.87658256319602,-4617.405531247137,6419.797342461313,0.9946696935835403,-1.333582567686192e-05,0.0001259413559856374,0.10311248531267544
0.395,-1.762897942629867e-05,0.0006698770239385835,-0.007294656895629485,-41.917733066312636,47.74527115804262,5.10259192121797,-1656287.120879195,5095440.929621663,3593715.183811329,-205.60851631087314,-4617.408255634588,6419.9697125239645,0.9946715652094644,-1.3476155988299462e-05,0.00012745609136317513,0.10309442728437013
0.4,-5.771831784182865e-06,0.0006453990248371545,-0.007252732849753846,-41.910008156239044,47.74535334126486,5.109063608050995,-1656288.1482516532,5095417.842573568,3593747.2840908114,-205.34046701868155,-4617.410982153744,6420.142080548092,0.9946734449248105,-1.3694969438897955e-05,0.000129117071027777,0.10307628778065193
0.405,-8.14196064150034e-06,0.0006608489713760513,-0.007280566996415709,-41.90696491597818,47.722473625766796,5.096627887623929,-1656289.174283985,5095394.755511848,3593779.3852322167,-205.07246571889993,-4617.413705831757,6420.314481641187,0.9946753135134279,-1.3877976624231065e-05,0.00013072023852238855,0.10305825249141923
0.41000000000000003,-1.067419420375456e-05,0.0006369563350893923,-0.007252944958262084,-41.910484660859105,47.71502019735882,5.103809227061809,-1656290.1989764217,5095371.668436486,3593811.487235335,-204.80450898258658,-4617.416439037695,6420.486765744868,0.9946771889373374,-1.4070867284050553e-05,0.00013236121355550125,0.10304014795329178
0.41500000000000004,-1.458074232083603e-05,0.0006478992531399404,-0.007263596650270541,-41.911012365674594,47.70385023020668,5.091915278296715,-1656291.2223291055,5095348.581347573,3593843.5900998614,-204.5365645146623,-4617.419126213566,6420.65904476226,0.9946790569227173,-1.4263890934428643e-05,0.00013394212356120384,0.10302211207009247
0.42,-7.706581676111753e-06,0.0006690400512883869,-0.007238974323110159,-41.91330132554352,47.69973416524414,5.092957551551506,-1656292.2443420868,5095325.494245157,3593875.6938256053,-204.26862798681407,-4617.421840205639,6420.831252771452,0.9946809273176124,-1.4469450957168353e-05,0.00013554923871904103,0.10300404966608623
0.425,3.802422524847441e-06,0.0006557127684468858,-0.007260980806326986,-41.91769162865919,47.686163381951616,5.091897833767375,-1656293.265015395,5095302.4071292,3593907.79841237,-204.0006952678974,-4617.424542527366,6421.003453084148,0.9946827910355116,-1.4663352609615322e-05,0.00013721069576036859,0.10298604845325394
0.43,8.269132700978163e-07,0.0006391646383397176,-0.007269028152160027,-41.91489401710246,47.67576899473479,5.090466186500458,-1656294.2843490618,5095279.319999805,3593939.903860002,-203.73277145422858,-4617.427215476838,6421.1755996706315,0.9946846600948105,-1.4825210974473187e-05,0.00013884197406945003,0.10296799247917206
0.435,1.087892872389811e-05,0.0006486803289362506,-0.007273675168354844,-41.91411141407148,47.66895849464917,5.089142728578681,-1656295.3023431967,5095256.23285706,3593972.010168277,-203.46488247913857,-4617.4298825944325,6421.347710498012,0.9946865309005607,-1.4990211541863073e-05,0.0001404313356506464,0.10294991646107114
0.44,-2.391447464303022e-05,0.000633469811362449,-0.007250270345478843,-41.90443886011975,47.650900867590124,5.088453810616502,-1656296.3189979352,5095233.145700985,3594004.1173370504,-203.1970129340065,-4617.432547522208,6421.519798695699,0.9946884025680959,-1.5132666323658715e-05,0.00014204694696947107,0.10293182884898648
0.445,-6.146568866513967e-06,0.0006347556150708956,-0.007271975577694809,-41.902284514644286,47.64033632340156,5.086116505560676,-1656297.3343135272,5095210.058531615,3594036.225366117,-202.92922390677555,-4617.4352003249705,6421.6918279587,0.994690267886554,-1.5357720160021954e-05,0.00014361578144138815,0.10291379941690654
0.45,-8.753660674991929e-06,0.0006542776939329559,-0.007257727618533803,-41.9025387850501,47.63170388772681,5.082842576718678,-1656298.3482902518,5095186.971348992,3594068.334255231,-202.66146595223387,-4617.43784918076,6421.86381764788,0.9946921384593753,-1.553892869429604e-05,0.00014519238388007626,0.10289571596926818
0.455,2.2034376326898076e-06,0.0006376530572967397,-0.007249026733333401,-41.8988337355421,47.62351044502982,5.090487047389131,-1656299.3609282258,5095163.884153125,3594100.4440042023,-202.39372358920406,-4617.440497243171,6422.035770973868,0.9946940050291785,-1.5731637031693603e-05,0.00014681686232346602,0.10287766791844143
0.46,1.9242023116908906e-05,0.0006182633724435625,-0.007276928407375738,-41.90363539616277,47.61569019693493,5.078951075187408,-1656300.372227604,5095140.796944106,3594132.554612939,-202.12602774107754,-4617.443110598722,6422.207723598493,0.9946958690380258,-1.5892819010663488e-05,0.0001484028180962058,0.10285964146694586
0.465,-7.891326463868518e-06,0.0006600139898843894,-0.007233279868235373,-41.89741483957937,47.59639282247283,5.078593125117217,-1656301.382188461,5095117.709721958,3594164.6660812884,-201.85831503591848,-4617.445748191793,6422.3796161798,0.9946977398992356,-1.6006654769512327e-05,0.000149944937069484,0.10284154559153354
0.47000000000000003,3.3765813242719234e-06,0.0006444746470822548,-0.007266231391299612,-41.89699549995217,47.593952391553664,5.086525411661205,-1656302.3908109237,5095094.622486682,3594196.7784089358,-201.59067004665036,-4617.4483624206905,6422.551442771831,0.9946995991917204,-1.619868210967633e-05,0.00015158390476271283,0.10282355823328401
0.47500000000000003,-4.692281432715888e-06,0.0006427779966042324,-0.00725512345322573,-41.892429188848,47.58385010595804,5.081561287395574,-1656303.3980952157,5095071.5352384085,3594228.891595768,-201.32304674600562,-4617.450947169421,6422.72329000035,0.9947014666316328,-1.6358706947077123e-05,0.00015318712514210653,0.10280548889517613
0.48,4.3772569901811656e-06,0.0006380650544539371,-0.007251574601968374,-41.893602524250284,47.574705285328555,5.07746997063007,-1656304.4040414854,5095048.44797718,3594261.005641728,-201.05546111746074,-4617.453544314139,6422.895094258794,0.9947033308866586,-1.6538356736652578e-05,0.00015478405296466186,0.10278744714879455
0.485,-3.336035864110453e-06,0.0006420528202368378,-0.007239231104792136,-41.88894850875139,47.55556149694818,5.07593649628065,-1656305.4086498553,5095025.360702966,3594293.1205466064,-200.78788682528426,-4617.456140791758,6423.066856993079,0.9947051939023124,-1.669424031905999e-05,0.00015637159152127053,0.10276941419017176
0.49,-4.180104405149657e-06,0.0006615572608985178,-0.007255913554498291,-41.88972025110953,47.550960520940976,5.0789472522672625,-1656306.411920501,5095002.273415825,3594325.236310123,-200.52037141705935,-4617.458715630672,6423.238549715002,0.994707053415841,-1.6870324752558378e-05,0.00015796706544320694,0.10275141189576799
0.495,2.9164804930615435e-06,0.0006593278862874085,-0.007239166793329641,-41.88612599218736,47.53739739661948,5.076911809528814,-1656307.4138536043,5094979.186115854,3594357.3529320965,-200.2528699733576,-4617.461273007328,6423.410239530662,0.9947089168777942,-1.7053525043032225e-05,0.00015961082479792744,0.10273336808149319
0.5,2.1391202830154032e-05,0.0006499382870122964,-0.007238397773033287,-41.88059510265249,47.52155373792356,5.077703152799123,-1656308.414449309,5094956.098803118,3594389.4704123945,-199.98541188110386,-4617.463821296852,6423.581879687657,0.9947107757105436,-1.7218498476853368e-05,0.00016125086350695161,0.10271536587585665
0.505,-2.013653572651653e-05,0.0006402195934594006,-0.007245456963809353,-41.87841680295755,47.51174581508687,5.080463872193554,-1656309.4137078726,5094933.011477695,3594421.58875077,-199.71801356886473,-4617.46634810065,6423.753470458104,0.9947126340219645,-1.733511794119945e-05,0.00016287229645155278,0.10269736554164396
0.51,6.620949385978928e-06,0.0006324404658081329,-0.007272247344465182,-41.88780327955582,47.51035550851901,5.0748319688938075,-1656310.4116295355,5094909.924139693,3594453.7079470432,-199.4506515785609,-4617.46885255058,6423.925039005071,0.9947144938193025,-1.7552515479129556e-05,0.00016445889879489005,0.10267934763616617
0.515,-6.478469877522478e-06,0.0006655336560445607,-0.007251174909484371,-41.889070745245164,47.48849040374877,5.0738456239534,-1656311.4082142846,5094886.8367891535,3594485.8280011066,-199.183248047107,-4617.471363247168,6424.096586212451,0.9947163601679623,-1.7701386990999452e-05,0.00016603302348328455,0.10266126306400435
0.52,7.537052997188942e-07,0.000629545029628452,-0.007245398231334888,-41.882680999780334,47.47380324709604,5.0749838325773595,-1656312.403462111,5094863.7494261665,3594517.948912694,-198.9158825162707,-4617.473831749666,6424.2680488946,0.9947182207635415,-1.789131873858137e-05,0.00016768608288607358,0.10264323086444954
0.525,1.5818269056132537e-05,0.0006580310944938355,-0.0072452272774195916,-41.87186126748576,47.46573359360295,5.066606048303603,-1656313.3973732647,5094840.662050882,3594550.0706814877,-198.64857894692008,-4617.476281817779,6424.439468582976,0.9947200795629538,-1.8054028145290718e-05,0.0001692515019702218,0.1026252129949169
0.53,1.0457225046044325e-05,0.0006655394952301167,-0.007247694760772794,-41.88196289803608,47.458514286520085,5.075970352153772,-1656314.3899480442,5094817.5746632395,3594582.1933072824,-198.38133293334732,-4617.478775221888,6424.610849239341,0.9947219379781949,-1.818658338473226e-05,0.00017089162516804732,0.1026071955089161
0.535,1.1134966648101679e-05,0.0006415537389785642,-0.0072462613447507335,-41.868805758438036,47.451111638499285,5.0732485262816684,-1656315.3811865565,5094794.4872632995,3594614.316789971,-198.11407200642918,-4617.481200905889,6424.782226264456,0.9947237966937514,-1.83343975824098e-05,0.00017254904492023185,0.10258917185475855
0.54,9.125964703998332e-07,0.0006287823550825259,-0.007247615083281115,-41.87708333952779,47.43182664831039,5.06823868545704,-1656316.3710889495,5094771.399851162,3594646.4411294986,-197.84688516079189,-4617.483653926335,6424.953584779734,0.9947256547228865,-1.8474374044259155e-05,0.00017414699049708458,0.10257115173209258
0.545,-1.938288145057544e-05,0.0006576312789728726,-0.007235890133268094,-41.86820317589101,47.41420629452987,5.061225369969661,-1656317.3596554,5094748.312426847,3594678.566325591,-197.57969503751698,-4617.486072047617,6425.12485203873,0.9947275127752302,-1.863649728515363e-05,0.0001757105545950887,0.10255312821404433
0.55,-1.2638337076952095e-05,0.0006545438017378637,-0.0072400758355339895,-41.87287221071235,47.40097942290095,5.064866581290711,-1656318.3468860697,5094725.224990412,3594710.6923778304,-197.31257287093507,-4617.488502279746,6425.29604367708,0.9947293674792647,-1.88564829135536e-05,0.00017734065781521794,0.10253513382751413
0.555,-7.343271872269105e-06,0.0006448980479793852,-0.007252257345886029,-41.86210307730474,47.39809787372824,5.052418899676744,-1656319.3327811612,5094702.137541944,3594742.819285929,-197.04546365798456,-4617.490884799037,6425.467195862961,0.9947312229295602,-1.905890646333905e-05,0.00017896481165069223,0.10251712899518793
0.56,6.816108704355887e-07,0.0006396875326698184,-0.007252451141781123,-41.86067954108596,47.38007752112969,5.068223196923913,-1656320.317340813,5094679.050081385,3594774.947049715,-196.7783971217603,-4617.49333843707,6425.638318632371,0.9947330811773925,-1.9245695402806058e-05,0.00018056633460267432,0.10249909383371711
0.5650000000000001,-3.0157964153118224e-05,0.000642831415739226,-0.00721868951198002,-41.861749691450775,47.374606835889274,5.05091632800654,-1656321.3005652938,5094655.962608795,3594807.075669066,-196.51139513274057,-4617.495697991262,6425.809421667006,0.9947349391480601,-1.9411192699794978e-05,0.00018215695616366186,0.1024810581529777
0.5700000000000001,1.1831628712709404e-05,0.0006367418281321754,-0.007226502488383541,-41.85878479449185,47.35736660529542,5.054035434652388,-1656322.2824547347,5094632.875124256,3594839.205143773,-196.24438126853153,-4617.49811755382,6425.980461201714,0.9947367881379331,-1.9654173093707873e-05,0.00018374749644809246,0.10246310641201514
0.5750000000000001,2.01554408988057e-06,0.0006482404920166435,-0.007247443387307059,-41.85514211225128,47.34755041309504,5.0567767407932855,-1656323.2630092406,5094609.787627717,3594871.335473551,-195.97742112915012,-4617.500497973546,6426.1514499450395,0.994738638807152,-1.9791175693191404e-05,0.0001853336484065117,0.10244513518875625
0.58,-1.6028676800461255e-05,0.0006391475849283716,-0.007229421252541134,-41.85727869814686,47.331393533213124,5.05590820155947,-1656324.242229053,5094586.700119324,3594903.4666582197,-195.71050380364755,-4617.502859090025,6426.3224175663445,0.994740494505609,-1.995554404085736e-05,0.0001869458806555325,0.1024271118588749
0.585,-9.158694915613606e-06,0.0006197223985526964,-0.00722744961667132,-41.85128608223555,47.319587688576036,5.061406990546852,-1656325.2201143382,5094563.612599204,3594935.598697572,-195.44361029743098,-4617.505188757915,6426.493323385514,0.9947423452642042,-2.0162448851523353e-05,0.00018853088049114352,0.10240913332244152
0.59,4.8671094974456516e-06,0.0006350219912327164,-0.007240214440878727,-41.843047532299416,47.31219302878254,5.04851089021889,-1656326.1966653073,5094540.525067511,3594967.731591405,-195.17677726513526,-4617.5074885563645,6426.664209686793,0.9947441952002054,-2.0347294780288172e-05,0.00019006933159770037,0.10239115965322657
0.595,-1.250081321057077e-05,0.0006625296427354903,-0.007229518845245632,-41.84841928508628,47.2964240724277,5.06008954383306,-1656327.1718822082,5094517.437524175,3594999.8653395413,-194.9099831590869,-4617.509845705853,6426.83504481573,0.9947460480693818,-2.0501182906640533e-05,0.00019164942024076589,0.1023731541984925
0.6,4.87106073294802e-06,0.0006309759618568403,-0.007214925364825816,-41.84234179348157,47.28371914591729,5.042248024032897,-1656328.1457652003,5094494.34996927,3595031.9999417826,-194.64321362188784,-4617.512116576642,6427.005851776919,0.9947478978590883,-2.070529769552778e-05,0.00019329347216529399,0.10235517531541322
0.605,1.960408533453772e-05,0.0006480810013855531,-0.007199010587065229,-41.835075437286726,47.272869196731456,5.047197834310529,-1656329.118314426,5094471.2624028595,3595064.135397838,-194.37647663380864,-4617.5144476621435,6427.176570385849,0.9947497436037525,-2.085812963149246e-05,0.00019486350014041027,0.10233723268402155
0.61,-1.1591084190767925e-05,0.0006364028863155453,-0.007205531832187556,-41.82998379949285,47.260667878418424,5.042324991456418,-1656330.089530126,5094448.174824851,3595096.2717074463,-194.10980336972946,-4617.516755810158,6427.34727287646,0.9947515849436982,-2.0978690832523024e-05,0.00019647983630828006,0.10231932958913013
0.615,-1.5123405839244876e-06,0.0006569788428353302,-0.007207792037066879,-41.82998651834067,47.24129137584916,5.052513508901646,-1656331.059412569,5094425.087235281,3595128.4088704395,-193.84317393885462,-4617.519072127373,6427.517924463395,0.9947534276307984,-2.1173846598483532e-05,0.00019805915033915903,0.10230141025919054
0.62,-4.961419791902352e-06,0.0006398518036115548,-0.0072178642731759775,-41.822275177634225,47.23164017081307,5.039822143101682,-1656332.0279619985,5094401.999634325,3595160.546886585,-193.5765978410514,-4617.521310397676,6427.688533830428,0.9947552705608014,-2.134920118820687e-05,0.00019969221186798224,0.10228348526883038
0.625,2.8306420806012245e-05,0.0006274036993817314,-0.007210001021351653,-41.82315798732782,47.22193102964103,5.0447285204922,-1656332.99517865,5094378.912022051,3595192.685755627,-193.31006265187966,-4617.523598893026,6427.859082985394,0.9947571157486642,-2.152875874044118e-05,0.00020128179780281807,0.10226553519905453
0.63,1.3120917358732937e-05,0.0006340528874910654,-0.007232334081036681,-41.818036337067774,47.195270609800424,5.034438769101202,-1656333.961062688,5094355.824398428,3595224.825477369,-193.0435525491254,-4617.525850479162,6428.029613658561,0.9947589586081836,-2.162239624579695e-05,0.0002028489323780554,0.10224760463475306
0.635,1.111533245811565e-05,0.0006291392049158473,-0.007210763069584046,-41.81784378726578,47.193528621143564,5.046196909891207,-1656334.9256143335,5094332.736763556,3595256.9660514523,-192.77710567329873,-4617.528098554856,6428.2000196183635,0.9947608068455878,-2.175550951752242e-05,0.0002044287198246572,0.10222961850418717
0.64,3.2392541970344495e-06,0.0006391281716755852,-0.007216087446951735,-41.81324974638224,47.17304372475163,5.0397658468765805,-1656335.8888338052,5094309.649117551,3595289.10747765,-192.5106830508272,-4617.53030316093,6428.37045951568,0.994762649245687,-2.1892343641159436e-05,0.00020599577595478347,0.10221168598632938
0.645,-2.2008301962574955e-06,0.0006257966544309074,-0.007205778924228721,-41.80366983663218,47.16333595198833,5.0360525962750815,-1656336.8507213003,5094286.561460538,3595321.249755824,-192.24431502907052,-4617.532502110549,6428.540810096295,0.994764492674738,-2.2051320043647074e-05,0.00020758566078548843,0.1021937401972545
0.65,7.484978784304901e-06,0.0006297643311557296,-0.007196624650415385,-41.80219465917782,47.14458866673209,5.039740646018724,-1656337.8112771076,5094263.473792483,3595353.3928856663,-191.97800789206624,-4617.534719613103,6428.711126900678,0.9947663331509707,-2.2220414102111956e-05,0.00020914100196010697,0.10217582001465175
0.655,3.930686603582579e-06,0.0006577892589069606,-0.007209618331299546,-41.78836688441574,47.134355041064794,5.045582702613822,-1656338.7705015054,5094240.386113462,3595385.5368669513,-191.71175119617433,-4617.536889148099,6428.881387091643,0.9947681709624409,-2.2366429076838762e-05,0.0002107086849917091,0.10215792255930509
0.66,1.8415762975668067e-05,0.0006330736089102915,-0.007215485495114807,-41.799975254150645,47.12009950399531,5.039177949791544,-1656339.7283948525,5094217.298423621,3595417.6816995232,-191.44558760532323,-4617.539047078211,6429.05164163538,0.9947700117523053,-2.252844755178492e-05,0.00021234515524541392,0.10213999275662063
0.665,-1.9793095256612773e-05,0.0006560950421474472,-0.0072171942888943985,-41.79195502906711,47.09992177862079,5.03030270170517,-1656340.6849573082,5094194.210723053,3595449.8273831736,-191.1793947624217,-4617.541180186957,6429.221818589779,0.994771853728264,-2.2648134694247442e-05,0.0002139238578944787,0.10212204832296704
0.67,2.9660829959065738e-05,0.0006115775387422961,-0.007198477460919579,-41.79306013978193,47.09802328497759,5.02857897129794,-1656341.6401889657,5094171.12301179,3595481.973917479,-190.91326815988668,-4617.543324994514,6429.391903519366,0.994773695799654,-2.2868722974776805e-05,0.00021555005814398115,0.1021040996252912
0.675,-2.7696718245680322e-05,0.0006207894711978575,-0.007218698893590843,-41.78268706528458,47.08115434337256,5.031436115884544,-1656342.5940899935,5094148.035289787,3595514.1213021954,-190.6471429597115,-4617.545476436777,6429.561982930583,0.9947755327946847,-2.2954948952890833e-05,0.0002170781709108237,0.10208619741762036
0.68,4.341167569057493e-06,0.0006705723822405129,-0.0072139320851254156,-41.77546641758618,47.06802902356364,5.030357564561972,-1656343.5466606098,5094124.947557081,3595546.269537199,-190.38110357321463,-4617.547605729524,6429.732018501853,0.9947773746168042,-2.318618163938923e-05,0.0002186145534237627,0.10206824491768467
0.685,4.076039844263143e-06,0.0006233329507424794,-0.007201255355867159,-41.77511811945492,47.04397523761384,5.014078443333035,-1656344.497901179,5094101.8598137405,3595578.4186222744,-190.11512403916896,-4617.549730545578,6429.902011762955,0.9947792148708546,-2.335043843910294e-05,0.00022028291855208715,0.10205030421864975
0.6900000000000001,1.9122099406742374e-05,0.0006231270980326346,-0.007227086129989752,-41.77254022786046,47.03064372363732,5.025264359670655,-1656345.4478119237,5094078.772059735,3595610.5685569793,-189.84917388739316,-4617.551871572735,6430.071870115239,0.9947810515911497,-2.350329561298905e-05,0.00022183373469598518,0.10203239501548397
0.6950000000000001,5.718726450702135e-07,0.0006233613211482609,-0.007207260652689499,-41.767212175356214,47.02033324285314,5.021714720796428,-1656346.3963930556,5094055.684295182,3595642.7193409437,-189.58327888677948,-4617.553949717119,6430.241715710311,0.9947828945753862,-2.3618695758027495e-05,0.00022338787526720707,0.10201442153063771
0.7000000000000001,-4.595477301710922e-06,0.0006170511521482009,-0.007206437598928189,-41.762157302612906,47.002438016546634,5.023920403479308,-1656347.3436448202,5094032.596520218,3595674.870974038,-189.31742700182014,-4617.556035633824,6430.411521948308,0.9947847321759192,-2.3780278179405647e-05,0.00022493786846203637,0.1019964973277932
0.705,-8.976506203698955e-07,0.0006182485910840675,-0.007211124350364293,-41.759371517144274,46.98319062032949,5.01391913840808,-1656348.2895674831,5094009.508734908,3595707.0234560273,-189.0516381062789,-4617.558088703442,6430.581273874274,0.9947865692445066,-2.395310209440881e-05,0.00022647085085380385,0.10197857514177792
0.71,2.1444384872713567e-05,0.0006194720823484594,-0.007196532029489977,-41.755077547308495,46.97136187365402,5.016342661810568,-1656349.2341613004,5093986.420939312,3595739.176786537,-188.78588881144015,-4617.560149285667,6430.75092994897,0.9947884071820385,-2.4117037567103775e-05,0.0002280077536289874,0.10196064126443906
0.715,-1.0121388828626565e-05,0.000644698636040057,-0.0071912711890379614,-41.75348971114254,46.96153774071895,5.014553052541722,-1656350.1774264933,5093963.333133468,3595771.3309652526,-188.5201883818662,-4617.562188496264,6430.920556300454,0.9947902410755769,-2.4225712589150355e-05,0.00022955339501746016,0.10194274363165544
0.72,1.4878069950077142e-06,0.0006147647659140979,-0.007184592570593789,-41.749172231340076,46.94591482139023,5.015872730448085,-1656351.1193632535,5093940.245317442,3595803.4859920107,-188.254515653058,-4617.564221934236,6431.09014700806,0.994792073287712,-2.4419317053500795e-05,0.00023115372971935707,0.10192485906581264
0.725,6.423607448346817e-06,0.0006276198803985676,-0.00719297306731634,-41.74340107747209,46.92605283201673,5.005949941502739,-1656352.0599717859,5093917.157491313,3595835.641866602,-187.98889733527002,-4617.5662296740165,6431.259689510778,0.9947939034923605,-2.4576418296746114e-05,0.0002326825779760701,0.10190699107151424
0.73,-1.4963011397644209e-05,0.0006328381341573472,-0.007187020561199389,-41.72798189428703,46.91132700523579,5.017475353204172,-1656352.9992523622,5093894.069655116,3595867.798588667,-187.7233331752426,-4617.568249304093,6431.429136362539,0.9947957355012031,-2.4724524211577235e-05,0.00023424465359738543,0.1018891021982264
0.735,2.9863682579499608e-05,0.0006429986660559465,-0.0071717592349633185,-41.7319444537875,46.901905608825025,5.014860809489427,-1656353.9372054066,5093870.981808922,3595899.956157949,-187.45788463271896,-4617.570227860894,6431.598576499216,0.9947975656655398,-2.4927144133566722e-05,0.00023581425959334526,0.10187122810778608
0.74,7.936459441161975e-06,0.0006218906739095947,-0.007179420319511782,-41.7203084023218,46.88687380515878,5.007948023473167,-1656354.8738312111,5093847.89395287,3595932.1145743295,-187.1924371064824,-4617.572193425934,6431.767975633019,0.994799391616949,-2.502085899988028e-05,0.00023742055202070756,0.10185339191203402
0.745,-6.0707958695025435e-06,0.0006134329721626698,-0.0071761448916415685,-41.71747188593078,46.86535615077956,5.013281459248327,-1656355.8091299667,5093824.80608693,3595964.2738375487,-186.92706513684365,-4617.574182056046,6431.937312068483,0.99480121920766,-2.5163736574428816e-05,0.0002389687649423643,0.10183553664447949
0.75,8.820171562580716e-06,0.0006278298399429923,-0.007176976351435385,-41.713730770870505,46.84758181993869,5.00467948289609,-1656356.7431020213,5093801.7182111945,3595996.4339472945,-186.6617567290149,-4617.57611259599,6432.106586322929,0.9948030456459532,-2.533929503416729e-05,0.00024049237757163065,0.10181768949879005
0.755,-5.372868621202676e-07,0.0006383326995071813,-0.007159358491151716,-41.70525902908704,46.834312015897375,4.990491340471743,-1656357.6757476414,5093778.630325787,3596028.594903199,-186.3964912665226,-4617.578050416826,6432.275775362488,0.9948048719655607,-2.5481484675730284e-05,0.0002420555855997671,0.10179984024236921
0.76,1.629320113189964e-05,0.0006353311307528164,-0.007185752545502567,-41.71265487586793,46.8261358527334,4.9936107242182395,-1656358.607067056,5093755.542430567,3596060.756704852,-186.13127463636576,-4617.580037541996,6432.444885831811,0.994806693472512,-2.5649608734437635e-05,0.00024364253394211193,0.10178203477382775
0.765,-2.0208512360720372e-05,0.0006317559205212419,-0.007183683169487773,-41.703906348026486,46.802307248174024,4.997065849538553,-1656359.5370603644,5093732.454525511,3596092.919352,-185.86604871186697,-4617.581984824489,6432.613973487064,0.994808521376084,-2.577512739190411e-05,0.0002452262981645727,0.10176416361978771
0.77,-1.0613950892585719e-05,0.000630659183758727,-0.00714766513890643,-41.69352558922863,46.78132796849726,4.996549094308549,-1656360.4657277728,5093709.366610828,3596125.082844407,-185.60091460367786,-4617.58388824018,6432.78298929275,0.994810348429576,-2.5990515740692574e-05,0.00024679188440077766,0.10174629760185099
0.775,-3.3079231553406618e-06,0.0006436081638048485,-0.007182037124233478,-41.68947321633626,46.77423454339828,4.999082732100099,-1656361.3930697327,5093686.278686674,3596157.247181718,-185.3358693544983,-4617.585773355384,6432.951935046954,0.9948121660008815,-2.6181740963885587e-05,0.00024835718581254167,0.10172852112293373
0.78,-1.1642269916428326e-06,0.0006088654667032783,-0.007141904374711071,-41.67925947703172,46.759119657478486,4.988293925692579,-1656362.3190865645,5093663.190753124,3596189.4123637313,-185.07086337848983,-4617.587646923581,6433.1208703096445,0.9948139919844472,-2.635811040825531e-05,0.00024995654747989894,0.10171065912156238
0.785,3.6981947684881327e-07,0.0006283408340870498,-0.007175790008664844,-41.6755734727469,46.743799170744815,4.987741890954616,-1656363.2437785272,5093640.1028101165,3596221.578390233,-184.80592172752657,-4617.589555736317,6433.2897304691505,0.9948158074636768,-2.6520289061453437e-05,0.00025147005049998175,0.10169289689983596
0.79,-9.103692155992993e-06,0.0006311734855917118,-0.007153606779762847,-41.67166816816222,46.72947295057262,4.993202670550512,-1656364.167145903,5093617.0148576135,3596253.745260904,-184.5410286124339,-4617.591445556659,6433.458537785386,0.9948176312245572,-2.6683625041335457e-05,0.000253032377204654,0.10167505036812673
0.795,-1.1167271168935681e-05,0.0006391739210717993,-0.007160021427780242,-41.67589115864617,46.70896042098076,4.983842321609148,-1656365.089188952,5093593.926895761,3596285.9129755315,-184.27619096047326,-4617.593295428388,6433.6273133379855,0.9948194490226766,-2.6871228045857894e-05,0.0002545993421870618,0.10165725898001671
0.8,-3.4601468751267975e-06,0.0006359849080350799,-0.007176804283874889,-41.66342927481035,46.691505001157445,4.9776022160282425,-1656366.0099078405,5093570.83892469,3596318.0815337743,-184.01136448900175,-4617.595132884257,6433.795983735679,0.9948212681248282,-2.706600060181903e-05,0.0002561856796839738,0.10163945160634179
0.805,-4.6316942889208964e-06,0.0006384282648197227,-0.007169061208150155,-41.651405934162135,46.66968764988923,4.973943838480497,-1656366.929302808,5093547.750944391,3596350.250935194,-183.74662245076962,-4617.5969868851,6433.964584086878,0.9948230911720158,-2.724080554608868e-05,0.000257766043087079,0.10162160245518988
0.81,6.837320598313626e-06,0.0006488542551086977,-0.007145088881179139,-41.64729332154077,46.66414399627364,4.982023705894959,-1656367.8473742993,5093524.662954832,3596382.421179413,-183.48197408689919,-4617.598836365329,6434.133103551322,0.9948249119279612,-2.741913994240344e-05,0.0002593521860670188,0.10160377252916661
0.8150000000000001,7.3322075925356555e-06,0.0006212763659577213,-0.00714594777810826,-41.638716384220686,46.63509009046933,4.986661944918709,-1656368.7641226584,5093501.574956101,3596414.592266258,-183.21736958239933,-4617.600656106895,6434.301634388685,0.994826726267667,-2.757158293223214e-05,0.00026096717393163306,0.10158600218287107
0.8200000000000001,-6.996553350646519e-06,0.0006170312017619602,-0.007162269362635398,-41.6380678654511,46.620979038516865,4.975116702835589,-1656369.67954825,5093478.486948424,3596446.764195532,-182.95286701056423,-4617.6024149103105,6434.470075251553,0.9948285405235556,-2.771579183776213e-05,0.0002625136992841361,0.10156822966934569
0.8250000000000001,3.916422500254441e-06,0.0006161122753135223,-0.007156601317470881,-41.62790705199288,46.60833430646149,4.970371419966188,-1656370.593651375,5093455.3989319,3596478.936966807,-182.6883830473625,-4617.604194549452,6434.638434897254,0.9948303586050105,-2.789457016230233e-05,0.00026404602702765934,0.10155041653983952
0.8300000000000001,1.3161237490114105e-05,0.0006155420506612251,-0.0071627646283154755,-41.627436444237865,46.59243792893528,4.983385470637906,-1656371.5064322487,5093432.310906436,3596511.1105797603,-182.42396640322198,-4617.605991140526,6434.806746252108,0.9948321749277849,-2.804597004368632e-05,0.00026557884018452415,0.1015326174672782
0.835,2.618731910773701e-06,0.0005959922532157543,-0.007147462382008765,-41.62368528500077,46.570396376382554,4.973450902892582,-1656372.4178911706,5093409.22287219,3596543.28503422,-182.1596023096821,-4617.607707328955,6434.975037673278,0.9948339924949441,-2.8174236668534012e-05,0.00026711258125462203,0.10151480302719902
0.84,1.9120907178617996e-05,0.0006065082044366195,-0.007139279608864698,-41.610110685028246,46.549787327426735,4.97934348711177,-1656373.3280283941,5093386.134829356,3596575.460329871,-181.89528712462896,-4617.6094262018605,6435.143222790508,0.9948358058703015,-2.8323751688494347e-05,0.0002685950257579008,0.10149702662080898
0.845,7.130403459802915e-06,0.0006231740282363796,-0.007152079408112098,-41.60057959010953,46.537130826002326,4.9775008290220315,-1656374.2368443182,5093363.046778019,3596607.6364663276,-181.63108257422422,-4617.611108833326,6435.311359851034,0.9948376168439226,-2.8434887162092476e-05,0.00027010781217065376,0.10147927052128332
0.85,1.9595251178548018e-05,0.0006329030089328048,-0.007128072655517695,-41.598655283208295,46.51676101477873,4.969109444550316,-1656375.1443393903,5093339.958718257,3596639.813443368,-181.366946242198,-4617.612795604406,6435.479456132858,0.9948394307328885,-2.858008086933017e-05,0.0002716590050888165,0.10146148256174026
0.855,7.788502395020453e-06,0.0006352784527916826,-0.007142395494643219,-41.596122325632074,46.49977165041674,4.965757146763956,-1656376.0505138799,5093316.870650071,3596671.9912606473,-181.10284956830753,-4617.614479039278,6435.647455667146,0.994841238207296,-2.869672475025489e-05,0.00027323755832390475,0.10144375426761787
0.86,-1.0918837773360469e-05,0.0006139916881661624,-0.007126092694280793,-41.588793928459914,46.48949566739228,4.96885604954272,-1656376.9553679929,5093293.7825735025,3596704.1699177534,-180.83879562842395,-4617.616148230986,6435.815386763532,0.9948430489925829,-2.8843345442126498e-05,0.00027481902411528435,0.10142599032647844
0.865,-2.1154128620342968e-05,0.0006326238018029259,-0.0071227800859957405,-41.57758307037223,46.46952931230396,4.9582069326644715,-1656377.858901987,5093270.694488624,3596736.349414467,-180.57480207504264,-4617.617803006581,6435.983298729895,0.9948448553384304,-2.903108451432167e-05,0.0002763428049933271,0.1014082669140338
0.87,-8.999395300486492e-06,0.0006244427415517504,-0.007132958161774028,-41.573127819559446,46.45133008917931,4.962114709565098,-1656378.7611162076,5093247.6063954085,3596768.5297505064,-180.31088613724296,-4617.61948331577,6436.151116976663,0.9948466605128307,-2.9249001230686106e-05,0.0002779103313216752,0.10139055171371956
0.875,-1.0864564169134496e-05,0.0006234207003393414,-0.007149699625715209,-41.56892107299551,46.438762339903754,4.9514259448215725,-1656379.6620110057,5093224.518293896,3596800.7109255083,-180.04703302157415,-4617.621121964744,6436.318883744335,0.9948484679553429,-2.9434621064002103e-05,0.0002794605905034615,0.10137281115905084
0.88,1.7207988000800388e-05,0.0006276755181516244,-0.0071222768435313735,-41.56697006490668,46.41831872837703,4.945271141852517,-1656380.5615866198,5093201.430184118,3596832.89293917,-179.7832127161894,-4617.622788883708,6436.486580880539,0.9948502793217344,-2.962463246732166e-05,0.0002810078337296798,0.10135502893515262
0.885,1.2058075938053311e-05,0.0006263439888130447,-0.007136532345281015,-41.56524953500599,46.39947443518091,4.955817202099411,-1656381.4598432395,5093178.3420660375,3596865.07579109,-179.51943515304987,-4617.624443532675,6436.654187219428,0.9948520834195625,-2.974588274813587e-05,0.0002825727743993153,0.10133731486261814
0.89,-8.934761515753902e-06,0.0006126160596773667,-0.007121078329616163,-41.539772003804096,46.376878058924056,4.948149530609451,-1656382.356781122,5093155.253939871,3596897.259480947,-179.255717834139,-4617.626023225534,6436.821755752572,0.9948538908109957,-2.987961425780853e-05,0.0002841330975358911,0.10131956530608999
0.895,-1.0389147397037318e-05,0.0006080606372200258,-0.007133186904698639,-41.55115066954515,46.36496323397673,4.943422037861862,-1656383.2524007934,5093132.165805712,3596929.444008437,-178.99215065291295,-4617.627639899888,6436.989240136485,0.9948556939777496,-3.0062069525945695e-05,0.0002856539610637435,0.1013018541692935
0.9,-1.9896616522298583e-05,0.0006420041171878066,-0.007124035644651258,-41.530902984678825,46.35028455899366,4.943020937545996,-1656384.146702552,5093109.077663536,3596961.6293731905,-178.72855285998634,-4617.629230856791,6437.15666118175,0.9948574998960411,-3.024699700996102e-05,0.0002871631252903287,0.1012841128857691
0.905,4.156252480569835e-06,0.0006383892209541874,-0.007109814437901341,-41.52491003631393,46.327825439290244,4.938979501934755,-1656385.039686626,5093085.989513365,3596993.8155749585,-178.46507677332033,-4617.63083760643,6437.32404614537,0.9948593031536461,-3.0464159195087412e-05,0.00028875430504210356,0.1012663943345865
0.91,2.4480690890865798e-05,0.0006173373168691028,-0.007129726686207283,-41.51856005890811,46.30116296888218,4.942392433360051,-1656385.9313534878,5093062.901355202,3597026.0026134276,-178.20166785843762,-4617.632427379363,6437.49134137313,0.9948611024978777,-3.062057288439492e-05,0.0002903425843702459,0.1012487111042483
0.915,8.898673142526434e-06,0.0006321224613053485,-0.00712211233853803,-41.51643494086399,46.29050387943245,4.943661276140857,-1656386.8217035194,5093039.813189229,3597058.1904881583,-177.93834485911816,-4617.633961851587,6437.658550934877,0.9948629065815237,-3.072112233896843e-05,0.00029188364733808905,0.10123097830363836
0.92,-2.5647194540883183e-05,0.0006309044915927742,-0.007106555086877452,-41.5006711010212,46.27243020137532,4.933429339149551,-1656387.7107370247,5093016.725015631,3597090.3791988613,-177.67505721606477,-4617.635477519619,6437.825730306889,0.9948647084079982,-3.08641629427162e-05,0.0002934575403195554,0.10121326441896883
0.925,-9.871524297650834e-06,0.000629436801887505,-0.007123990618488137,-41.491845294541214,46.25385977557892,4.934679375653071,-1656388.5984543294,5092993.63683436,3597122.5687452587,-177.41186467890864,-4617.637030675178,6437.99282857643,0.9948665059790065,-3.109280509785709e-05,0.00029501966387005516,0.10119558922086928
0.93,6.6505550688707824e-06,0.0006281889106465075,-0.007113138404999552,-41.49050924731022,46.242528830141666,4.930656665163279,-1656389.4848558705,5092970.548645382,3597154.759127005,-177.14875175112363,-4617.638560710849,6438.15987001437,0.9948683076460536,-3.128185207849979e-05,0.00029658212665346396,0.1011778706139108
0.935,9.057743273498523e-06,0.0006098729659635742,-0.00710715111594254,-41.47982477166525,46.22071935759755,4.938924215547899,-1656390.3699419126,5092947.460448756,3597186.9503438375,-176.88566504087282,-4617.64008964769,6438.326863054272,0.9948701062527622,-3.142948212243809e-05,0.00029814566564430545,0.10116017895381327
0.9400000000000001,8.172740937241495e-06,0.000635036200571895,-0.007081505181435718,-41.475521373294555,46.19318551925723,4.928300396454752,-1656391.253712778,5092924.372244622,3597219.1423955136,-176.62268112829165,-4617.641564161156,6438.4938072990635,0.9948719030423976,-3.156648848409228e-05,0.0002996642588250672,0.10114250215259259
0.9450000000000001,-3.3735684994369656e-06,0.0006290764955130469,-0.00710769962856937,-41.46701532498425,46.17630647398879,4.926281934506983,-1656392.1361688743,5092901.28403313,3597251.3352815853,-176.3597574629703,-4617.643032486915,6438.660621343416,0.994873693013019,-3.171203946398728e-05,0.0003012452156440951,0.10112488910403783
0.9500000000000001,8.847910118110762e-06,0.000638435971988651,-0.007111998436249425,-41.46160336077717,46.166627140374345,4.922403367373588,-1656393.0173105297,5092878.195814314,3597283.5290015787,-176.09690470504017,-4617.644493723037,6438.82737599783,0.9948754892940334,-3.188482127369453e-05,0.00030280842835829936,0.10110721088217045
0.9550000000000001,1.1079299442740594e-05,0.0006134504625740496,-0.007119330830783247,-41.45460518280286,46.14336062556867,4.916534653181208,-1656393.8971380256,5092855.107588166,3597315.7235552506,-175.83409362056156,-4617.645965407316,6438.994092732931,0.9948772863387216,-3.202957498014515e-05,0.0003043980086167917,0.10108952192616172
0.96,8.794697557141661e-06,0.0006245290273899431,-0.007118482118455516,-41.44101314579285,46.12474507123568,4.923813667748093,-1656394.7756516428,5092832.019354684,3597347.9189422624,-175.5713532704649,-4617.647427449917,6439.160712147179,0.994879084938402,-3.216246992690301e-05,0.00030592600832676916,0.10107181470113577
0.965,-1.1868954243002065e-05,0.0006248081342686262,-0.00708451100100974,-41.44211916233644,46.10484986209297,4.921737359558338,-1656395.6528518302,5092808.931113985,3597380.1151622813,-175.30872170203534,-4617.648852246355,6439.327295368741,0.9948808829974696,-3.230384579749906e-05,0.0003074809853162742,0.10105410955562584
0.97,-6.704531180833071e-06,0.0006212148522636679,-0.0071068536393757275,-41.426142845521184,46.08783600504746,4.916546596092255,-1656396.528738943,5092785.842866246,3597412.3122150167,-175.04612331069862,-4617.650243578492,6439.493798813345,0.9948826721563407,-3.24966607367624e-05,0.00030903143877952023,0.10103648888691737
0.975,-2.064485987585684e-05,0.000632149153670368,-0.007089952013401474,-41.41985602333288,46.068437826978105,4.9206229430003114,-1656397.4033133148,5092762.754611498,3597444.5101001128,-174.78362546167023,-4617.651655344291,6439.660239629856,0.9948844666464777,-3.267574030812748e-05,0.00031057425758254225,0.1010188126117121
0.98,-1.9434805327294498e-07,0.0006345708075697375,-0.007096202535049088,-41.40964988377699,46.049717147693784,4.922831463591191,-1656398.2765753807,5092739.666349796,3597476.708817277,-174.52120091491372,-4617.653025697345,6439.826626013212,0.9948862565427768,-3.289224071266774e-05,0.000312140752995606,0.10100117835228918
0.985,-3.9261406503215806e-06,0.0006178408966186613,-0.007087321158864744,-41.40483172128373,46.0330303841901,4.912562052489378,-1656399.148525542,5092716.578081302,3597508.9083662387,-174.25886360850885,-4617.654371574933,6439.992958727505,0.9948880477018069,-3.30584926262527e-05,0.0003137184347856849,0.1009835284983003
0.99,-1.7323339002508475e-05,0.0006403757236019516,-0.007070587633294404,-41.39369108409705,46.00781377126899,4.912237018585651,-1656400.0191641252,5092693.489806034,3597541.1087466525,-173.99656970753446,-4617.6557357522925,6440.159206673613,0.9948898363163041,-3.322979573977807e-05,0.0003152535641153267,0.10096590070656858
0.995,-3.415579041289949e-06,0.0006325396572639836,-0.007083404114386486,-41.389213724277916,45.98769935210403,4.9055988873217995,-1656400.8884914888,5092670.401524014,3597573.3099580896,-173.73437567824632,-4617.657072434525,6440.325368254126,0.9948916203740791,-3.344009561849039e-05,0.0003168413622609034,0.10094831451168762
1.0,-1.3324540565953925e-07,0.0006252059397534386,-0.007071199787774693,-41.382273121248254,45.97227634734965,4.904199762012133,-1656401.7565080137,5092647.313235321,3597605.512000113,-173.47223433245847,-4617.658404522262,6440.4914409806415,0.9948934073597838,-3.361383625979027e-05,0.0003184131790555162,0.10093069639706628
1.0050000000000001,-8.074191727447066e-06,0.0006208386818066758,-0.00705849093731881,-41.37374502158566,45.95137068795528,4.905932450997072,-1656402.623213987,5092624.224939992,3597637.7148723667,-173.21015499470167,-4617.659727184955,6440.657460614114,0.9948951909582121,-3.3777552752168674e-05,0.00031996758432778987,0.10091310860361258
1.01,-9.301822381279978e-06,0.0006095836767656537,-0.007079039287962484,-41.357136964425855,45.94095095505487,4.902646907378364,-1656403.4886097712,5092601.136638127,3597669.918574556,-172.948158666348,-4617.661018741195,6440.823414949015,0.9948969710404676,-3.395990830720904e-05,0.00032150912479888844,0.10089555239509057
1.0150000000000001,-5.871076021402479e-06,0.0006146790389895012,-0.0071011783251122215,-41.35651313545632,45.89458713188773,4.893732060103637,-1656404.3526958085,5092578.048329731,3597702.123106441,-172.6862562328062,-4617.662339589687,6440.989339218322,0.9948987560017005,-3.414249483292178e-05,0.0003230223598420285,0.10087794504803314
1.02,2.3314577742156064e-05,0.0006361096198572736,-0.007062058704111073,-41.343983758260656,45.89539212378523,4.892051985980321,-1656405.215472533,5092554.960014891,3597734.328467435,-172.42443353048702,-4617.66359668671,6441.15505845457,0.9949005462275492,-3.431785113727496e-05,0.00032454913153367646,0.10086028260058832
1.025,-1.5787402103915235e-05,0.0006070537220969672,-0.007039547078526838,-41.34212781509483,45.86228205058779,4.89982821874941,-1656406.0769402874,5092531.871693663,3597766.534657067,-172.16266829856758,-4617.664894181849,6441.320794342237,0.9949023262602019,-3.4425987369161085e-05,0.0003261365689037926,0.10084271739609511
1.03,-3.5342919366479266e-06,0.000635023249783192,-0.0070516907158239325,-41.334743611260336,45.85074189152695,4.893103182992646,-1656406.937099423,5092508.78336619,3597798.74167512,-171.900985876422,-4617.66609501098,6441.486426727484,0.9949041003263115,-3.462403667315633e-05,0.0003276418807838119,0.10082520818657872
1.035,1.5726336875661756e-06,0.0006252264542436343,-0.00704902087117839,-41.320655973422284,45.82152079294631,4.893597185817009,-1656407.7959502714,5092485.69503266,3597830.949521205,-171.63935355284076,-4617.667317192842,6441.65200717329,0.9949058771204593,-3.479866932299945e-05,0.0003292198475606371,0.10080766872869365
1.04,3.7256146056479204e-06,0.0006166961726095495,-0.007050171706785084,-41.30549202685729,45.807862233349596,4.875539075491957,-1656408.6534932617,5092462.606693103,3597863.1581949466,-171.37784250866554,-4617.6685054124555,6441.817489660853,0.9949076529387043,-3.495812850843819e-05,0.0003307747342861526,0.10079013587649964
1.045,1.0564682629855644e-05,0.0006190028973764586,-0.007059906461498992,-41.30161509132072,45.79218043666213,4.880968548145563,-1656409.5097288822,5092439.518347413,3597895.367695887,-171.11640572569817,-4617.669770702141,6441.982886388254,0.9949094287427522,-3.511008417101386e-05,0.00033230894619945355,0.100772600129284
1.05,2.8256348484836554e-05,0.000629124529179484,-0.0070710114497941345,-41.282694895539954,45.765674044568236,4.876407190486264,-1656410.3646574626,5092416.429995504,3597927.5780237163,-170.8550263799544,-4617.670992723011,6442.148245453896,0.9949112066861001,-3.52456184134279e-05,0.00033385061758633283,0.10075504013159678
1.055,-4.099029831126438e-06,0.0006162732055307566,-0.007057858801845262,-41.28515631197578,45.74759999291958,4.887463712977921,-1656411.2182794749,5092393.341637481,3597959.7891780986,-170.5937785955418,-4617.672216830563,6442.3135074454185,0.9949129871069263,-3.533970733525242e-05,0.00033542191951326357,0.1007374524653769
1.06,-2.9741426313316932e-06,0.0006168125003162196,-0.00704289214068549,-41.27847640517039,45.73238806509861,4.880272730481664,-1656412.07059535,5092370.253273546,3597992.001158699,-170.33257137036045,-4617.673356991714,6442.478732576694,0.9949147639105184,-3.551102565796651e-05,0.00033695310912882595,0.10071989751010889
1.065,-1.2373685000965123e-05,0.0006206929410771776,-0.007044134553637461,-41.265892249652175,45.717692228805106,4.88332217124904,-1656412.921605321,5092347.164903877,3598024.2139652525,-170.07141709183875,-4617.674510448275,6442.643888978954,0.9949165366336965,-3.5679669239055336e-05,0.0003384859245947758,0.10070237974869549
1.07,3.063531175852842e-06,0.0006312296569708525,-0.0070602425627558614,-41.260302715558296,45.68897785846716,4.872700044666695,-1656413.77130975,5092324.076528476,3598056.427597506,-169.81035444634557,-4617.675650109002,6442.809012261186,0.9949183093546632,-3.5872670184583574e-05,0.00034002602524013057,0.10068485887318135
1.075,-5.841450003937374e-06,0.0006024628507452594,-0.007041303599883237,-41.24663770339099,45.65866513880954,4.876416958155383,-1656414.6197090354,5092300.988147392,3598088.64205504,-169.54935972789582,-4617.676783340325,6442.974001457254,0.9949200858109475,-3.602994010853404e-05,0.00034159621799812406,0.10066729788667364
1.08,-2.4312005853857963e-05,0.0006086953750363052,-0.007037478745753434,-41.2337872377869,45.64465242121444,4.86613249084729,-1656415.4668036608,5092277.899760768,3598120.8573372858,-169.28849045286236,-4617.677866499218,6443.138896893127,0.9949218572131622,-3.620210351761173e-05,0.00034309261957079785,0.10064978398573049
1.085,1.797665202044761e-06,0.0006067182236874632,-0.007017823416872893,-41.223718485815894,45.61651876436606,4.873757170348224,-1656416.312594126,5092254.811368626,3598153.0734438403,-169.0276956345818,-4617.678990522629,6443.303724888566,0.9949236273355165,-3.642177378949037e-05,0.000344599875925576,0.1006322795822407
1.09,-1.2148671460353454e-05,0.0006159437248915669,-0.007012368504311858,-41.21600181501122,45.597184410719294,4.867152435510794,-1656417.157080893,5092231.722971032,3598185.2903743424,-168.76701118320744,-4617.680046718345,6443.468475860446,0.9949253922076439,-3.6575986882355405e-05,0.00034610878486569574,0.1006148240140201
1.095,8.245305405259045e-06,0.0006035739760174723,-0.007029590771893684,-41.21094745024249,45.57653838734052,4.867766815979469,-1656418.000264402,5092208.634568149,3598217.5081283916,-168.5063924400912,-4617.68110649902,6443.633143792105,0.9949271553900647,-3.6767204710463196e-05,0.0003476371328903419,0.1005973819939194
1.1,-1.2722541059216595e-05,0.0006255413833375057,-0.007033773690378562,-41.19488320581842,45.55857583442678,4.8615172299542015,-1656418.8421449808,5092185.546160051,3598249.7267056042,-168.2458390831733,-4617.6821329459735,6443.7977413299905,0.9949289226075593,-3.690460028063094e-05,0.0003491398406780875,0.1005798970887504
1.105,-5.668690242647995e-06,0.0006136696153168181,-0.007031326153007321,-41.19465586618366,45.53304768135924,4.863088938198124,-1656419.6827230458,5092162.457746764,3598281.946105631,-167.9853868630058,-4617.683181830072,6443.962269307723,0.9949306905459274,-3.709967698150603e-05,0.00035069191563383485,0.1005624017642704
1.11,9.94422752130287e-06,0.000636652060568165,-0.0070179413321167375,-41.18024522961088,45.52020340290327,4.858848332745911,-1656420.5219989838,5092139.369328378,3598314.1663280684,-167.72498839332076,-4617.684172513745,6444.126705766452,0.9949324575701065,-3.7274221659573864e-05,0.00035221623512191047,0.10054491249120658
1.115,-2.998078551488496e-06,0.0006137469742107234,-0.007013381039168959,-41.168648891660055,45.483570510163695,4.850420047811448,-1656421.3599731473,5092116.280904981,3598346.387372577,-167.4646770117812,-4617.685186080646,6444.29109769258,0.9949342209017864,-3.741569696344454e-05,0.00035380164519823056,0.10052745646348045
1.12,2.6094820345146998e-05,0.0006120448452716002,-0.0070236477246064365,-41.17077132058868,45.46837345280927,4.8547386666006025,-1656422.1966460336,5092093.19247657,3598378.6092386576,-167.20447748705575,-4617.686178593465,6444.455334435012,0.9949359827979333,-3.7583603604960396e-05,0.00035532683031301804,0.100510011761153
1.125,-5.885720715229683e-06,0.0006404483715074027,-0.007019869870491416,-41.14636781642015,45.4555704519984,4.845110043716811,-1656423.0320179926,5092070.104043321,3598410.8319258117,-166.94430609323436,-4617.68712095915,6444.619527324205,0.9949377469694362,-3.767872772250094e-05,0.000356855090898631,0.1004925414652244
1.1300000000000001,-2.0923467159203258e-05,0.0006113018186428875,-0.007024780215255259,-41.13377040655037,45.421457368322535,4.845018936929045,-1656423.866089407,5092047.015605198,3598443.055433803,-166.68425961126744,-4617.6881279575955,6444.783669037959,0.9949395098544322,-3.7860530932986066e-05,0.0003584459665656357,0.10047508056076138
1.135,-8.97253720148295e-07,0.0006251322238395236,-0.0070020615870113965,-41.13558242357209,45.40197949074809,4.843946267330455,-1656424.698860895,5092023.927162156,3598475.2797622,-166.42433562831252,-4617.689088880501,6444.947689924914,0.9949412736884562,-3.8072421396513364e-05,0.0003599605667170032,0.10045760742757921
1.1400000000000001,-9.53773920615843e-06,0.0005988261646628024,-0.007018795845821617,-41.11967807426753,45.37816259274416,4.845770003855208,-1656425.530332839,5092000.838714405,3598507.504910512,-166.1644419248418,-4617.690011726758,6445.111634744022,0.9949430314980434,-3.8237952561500097e-05,0.0003615145994853553,0.10044019075318797
1.145,2.5173282807200747e-06,0.0006041493466590846,-0.007017001543438555,-41.11161467556871,45.35937057547653,4.832771823505646,-1656426.3605056172,5091977.750262097,3598539.7308783703,-165.90466947932507,-4617.690911350804,6445.275508608718,0.9949447932246195,-3.841838535190102e-05,0.00036300102833642316,0.10042273243394825
1.1500000000000001,1.2551713608398102e-05,0.0006108689317577767,-0.007005367934833636,-41.101534561690244,45.34179892771013,4.835676210070828,-1656427.1893796786,5091954.661805214,3598571.9576653517,-165.64495504870055,-4617.69184168251,6445.439283988741,0.9949465541885386,-3.857016760669586e-05,0.0003645037244348353,0.10040527853519779
1.155,-8.1434961975687e-06,0.0005939871573153601,-0.006986127705777084,-41.082075543684105,45.31756096735417,4.8324603167051565,-1656428.016955381,5091931.573343743,3598604.1852710918,-165.38532590922583,-4617.692746965304,6445.603011983729,0.9949483119191399,-3.869866676008401e-05,0.000366025654375428,0.10038785353262324
1.16,4.293509966572876e-06,0.0006328319575079682,-0.006986825273252445,-41.079560458060314,45.29545300090904,4.827556869444802,-1656428.8432332664,5091908.484877737,3598636.413695262,-165.1258282443856,-4617.6936551850795,6445.766656141804,0.9949500645278825,-3.8874388142899326e-05,0.000367500400962976,0.1003704763772687
1.165,1.190618342397441e-05,0.0006232791906273373,-0.00701037598389721,-41.0698710094764,45.268371166206606,4.831288188942882,-1656429.668213787,5091885.396407242,3598668.642937418,-164.86638002020604,-4617.6945431923195,6445.930206353653,0.9949518169713132,-3.902892183219542e-05,0.0003690748897314757,0.10035309744074428
1.17,-1.0800384913166175e-05,0.0006357357644200841,-0.007004289219565813,-41.064277548234486,45.24701175916658,4.823914729716817,-1656430.4918973208,5091862.307932433,3598700.8729971154,-164.6070334569387,-4617.695380182291,6446.093672516902,0.9949535750257313,-3.9162145006800786e-05,0.0003706275246196756,0.10033565988760365
1.175,-1.675177486222532e-06,0.0006106638009224087,-0.007007845504027252,-41.04873774662765,45.23014855714529,4.825277734617566,-1656431.3142842685,5091839.219453446,3598733.1038739053,-164.34774564767812,-4617.696214690477,6446.257043455232,0.9949553312317772,-3.935496707922099e-05,0.0003722054485744143,0.10031823746336159
1.18,-1.081666371144194e-05,0.0005928479548681818,-0.007000301713980002,-41.02911641540202,45.200528219740725,4.819267535994873,-1656432.1353750436,5091816.130970302,3598765.335567439,-164.08856434567218,-4617.697042987233,6446.42037005892,0.994957088046301,-3.951880657622845e-05,0.0003737232969166208,0.10030080615621534
1.185,1.2865587956595008e-05,0.0006142536641027161,-0.007011397681802801,-41.02302681406019,45.17919422483132,4.821462415834682,-1656432.9551702577,5091793.042483011,3598797.5680773226,-163.82952129331386,-4617.697873189205,6446.583583247446,0.9949588426776335,-3.9700910119787554e-05,0.00037519453863682885,0.10028339359275863
1.19,-3.986139193356436e-06,0.0006056059899941756,-0.0069891288631390575,-41.013240060737736,45.15718354478005,4.816783259600728,-1656433.7736704394,5091769.953991667,3598829.8014031015,-163.5705514216385,-4617.698664298761,6446.746728428805,0.9949605997656089,-3.9829483487581894e-05,0.0003767249609804129,0.10026595337389393
1.195,-1.3192797566543608e-05,0.0006199483571883134,-0.006972996377310826,-40.9992773604068,45.137519248239144,4.8086288918893425,-1656434.5908759772,5091746.865496383,3598862.0355443894,-163.31166372105147,-4617.69944938812,6446.909786713762,0.9949623509709956,-3.999778521318864e-05,0.00037822965105136484,0.1002485685323123
1.2,-7.276867400113488e-06,0.0006271293068600258,-0.006977158108632424,-40.99415348355361,45.11612907504259,4.817527935040912,-1656435.4067873072,5091723.776997119,3598894.2705007596,-163.0528682219326,-4617.700256090274,6447.072761317189,0.9949640978133563,-4.019256687265446e-05,0.0003797677105220276,0.10023122379527155
1.205,1.2516019205506448e-05,0.0005775856901508899,-0.0069787206302629745,-40.98073710541462,45.093440742285075,4.810202492889451,-1656436.2214048533,5091700.688493991,3598926.506271877,-162.79415025769458,-4617.700995118114,6447.235685613312,0.9949658453873717,-4.0374436514159376e-05,0.00038132511382819206,0.10021386866923812
1.21,1.1184171423388393e-05,0.000589530962230567,-0.0069660345326024884,-40.97277292358399,45.07280899095062,4.802657213733744,-1656437.0347290502,5091677.599987143,3598958.7428573803,-162.53552852625904,-4617.70174439217,6447.398515801269,0.9949675930970299,-4.0494662123735366e-05,0.00038276424014787604,0.10019650961197243
1.215,4.436007664953436e-06,0.0006157694615850089,-0.007002506523297932,-40.95116949000784,45.0399262355084,4.803501321625133,-1656437.8467603081,5091654.511476536,3598990.9802568075,-162.27697457641096,-4617.702498357105,6447.561255102751,0.9949693373129381,-4.0621180631332926e-05,0.0003842327469150211,0.10017918207975515
1.22,1.0261637242247762e-05,0.0006104144370236396,-0.006951192332588861,-40.94772072733564,45.022575982091304,4.802031559991072,-1656438.6574992004,5091631.422962231,3599023.2184696663,-162.0185823538318,-4617.703223701708,6447.723888447293,0.9949710903316887,-4.077109107935232e-05,0.00038576482605227923,0.10016176379930451
1.225,-6.502331651389763e-06,0.0006025910948552673,-0.006964807191266869,-40.93741285818985,44.996428547799034,4.799659790648175,-1656439.4669462552,5091608.3344443515,3599055.4574955315,-161.76023958348551,-4617.703928082716,6447.886457537391,0.9949728302018582,-4.0905120272562955e-05,0.00038728504882837734,0.10014447312341436
1.23,1.5145450509229575e-05,0.0006190967846655279,-0.00697260563999106,-40.92799508227148,44.974412067573866,4.80101853519274,-1656440.2751018333,5091585.245923009,3599087.6973339994,-161.5019916288919,-4617.70460882865,6448.048929712626,0.9949745731831671,-4.107890320810804e-05,0.00038878161301477755,0.1001271485679865
1.235,1.1662327646646974e-05,0.0005817437247783172,-0.006961191062096075,-40.91495022348457,44.94387240314445,4.794439339918097,-1656441.081966392,5091562.157398339,3599119.9379846524,-161.24383186997125,-4617.705258938657,6448.211331448338,0.9949763177984331,-4.1202977897900375e-05,0.00039032465196232543,0.10010980456105344
1.24,-2.6920856919912317e-05,0.0006045542502939676,-0.006976220632408477,-40.90863911496959,44.9193394684496,4.792893942771234,-1656441.8875404259,5091539.0688704485,3599152.1794470036,-160.9857816885038,-4617.70589750156,6448.373608935243,0.9949780592889301,-4.132635697974379e-05,0.00039177390670453675,0.10009248892385827
1.245,7.9192468071586e-06,0.00059377391194435,-0.006943524497103845,-40.892292847926484,44.90168517860353,4.792356289015464,-1656442.6918243964,5091515.980339443,3599184.4217205136,-160.7278065311978,-4617.706504716424,6448.535795064812,0.9949798042097818,-4.155143223035764e-05,0.0003932702449877661,0.10007513590626405
1.25,2.2884321274733874e-05,0.0006181521433505562,-0.00697166776060915,-40.881766027658095,44.880815172136025,4.779082443643294,-1656443.4948187638,5091492.891805398,3599216.664804823,-160.46994038026563,-4617.707112989006,6448.697928863984,0.9949815406612104,-4.168711521373078e-05,0.0003947484875704179,0.10005786415499884
1.2550000000000001,-8.376121073234167e-06,0.0006023812534430349,-0.006931610703524106,-40.87462236433312,44.85065580556356,4.784156431451224,-1656444.296523981,5091469.803268233,3599248.9086995376,-160.2121465150804,-4617.707753147369,6448.859956834089,0.9949832838267075,-4.179169911046963e-05,0.0003962911102587751,0.10004052235085259
1.26,-7.329654501120435e-06,0.0005935330272380762,-0.006970202161969589,-40.86807744679727,44.83678427300999,4.78183056601077,-1656445.0969404723,5091446.714728039,3599281.1534041543,-159.9544500090205,-4617.708324603747,6449.021889814089,0.9949850166834024,-4.197005803264108e-05,0.0003977866893046223,0.10002328018913129
1.2650000000000001,-4.0459234356753005e-06,0.0006085614456577748,-0.0069405070895416626,-40.84591238937572,44.80879238889107,4.77786634184341,-1656445.8960686207,5091423.626184995,3599313.3989183106,-159.69680941252514,-4617.708892727742,6449.183772711009,0.9949867588964357,-4.2143639702035205e-05,0.0003992605162265523,0.10000594200206256
1.27,1.142366836093677e-05,0.0005990557088120999,-0.006940124305503606,-40.83180730900223,44.786296642542794,4.775988464517947,-1656446.6939089394,5091400.537639105,3599345.6452416335,-159.43931804884167,-4617.709463526266,6449.345556464346,0.9949884933675165,-4.2312780873958625e-05,0.0004007725498303854,0.09998867764517913
1.2750000000000001,-4.637427709686114e-06,0.000592739066259506,-0.006929892041088576,-40.81799544255871,44.75938549084146,4.772078987828988,-1656447.490462066,5091377.449090384,3599377.892373681,-159.18193255847302,-4617.710024867277,6449.507262578226,0.9949902274522635,-4.244106531979279e-05,0.00040226480506625866,0.09997141419563653
1.28,-1.857212205281218e-05,0.0006108101696805947,-0.006936706772066116,-40.81391333760566,44.73866235984115,4.767372295300962,-1656448.2857285398,5091354.360538887,3599410.1403140053,-158.9246569279805,-4617.710573994483,6449.668867189538,0.9949919586830314,-4.260771233743022e-05,0.0004037373346457496,0.09995417618515168
1.285,2.406701728026546e-06,0.0006096088452913282,-0.006930139573666003,-40.79898828374708,44.716215050626886,4.766384243297676,-1656449.0797087704,5091331.271984681,3599442.3890621364,-158.66743535889702,-4617.7111083679465,6449.83038517801,0.9949936912957864,-4.28135441982573e-05,0.00040525133280636127,0.09993692120504363
1.29,-7.517109159201582e-06,0.0006292775953444013,-0.006952836606623428,-40.79489014816521,44.68554076440967,4.760938418850676,-1656449.8724031697,5091308.183427831,3599474.6386176716,-158.41032437617883,-4617.711631560093,6449.991828860576,0.9949954219699751,-4.296688475777729e-05,0.00040676758466935974,0.09991968250935343
1.295,-2.3838384768165742e-06,0.0006048363741063547,-0.006915580203851205,-40.77407457806367,44.66940812881404,4.749071527960919,-1656450.6638121917,5091285.094868452,3599506.8889801023,-158.1532844102382,-4617.712120041002,6450.1531434478,0.994997157990765,-4.314984698944786e-05,0.00040833028080139276,0.09990238733270176
1.3,1.232676052835262e-05,0.0005996031421076235,-0.006926879005285712,-40.76098785468786,44.63967324535379,4.754910564523572,-1656451.4539362933,5091262.006306485,3599539.1401489205,-157.8963561816075,-4617.712666759731,6450.314383820994,0.9949988844306619,-4.3313897860535605e-05,0.0004098334655295799,0.09988518479822289
1.305,-4.746954164965523e-06,0.0005912548055401778,-0.0069167432450873935,-40.75336870271465,44.61764472187126,4.748545265406146,-1656452.242776064,5091238.917741931,3599571.3921237243,-157.63955209309066,-4617.713154833294,6450.475537831884,0.9950006133988157,-4.34400609152653e-05,0.00041132730468789667,0.09986795411336967
1.31,1.9382090158935034e-05,0.0005904187245247769,-0.006924604223055589,-40.73298472285609,44.586839151322195,4.7500230931947955,-1656453.0303319895,5091215.829174947,3599603.6449040645,-157.38281812435932,-4617.713638879465,6450.636598174864,0.9950023395429507,-4.360660009734023e-05,0.00041279611553047564,0.09985074862957276
1.315,-8.634196396065964e-06,0.0006041791126222696,-0.006932421675262959,-40.71866367549337,44.563804901957305,4.749443305554142,-1656453.816604628,5091192.740605615,3599635.898489464,-157.12623734062413,-4617.714093936808,6450.797561583979,0.995004067352866,-4.3712917531554184e-05,0.0004142688688930392,0.09983352353662925
1.32,-1.2110132892472382e-05,0.0005893536838373143,-0.006913688812653937,-40.71486835811817,44.53481064807763,4.745081389171952,-1656454.6015946364,5091169.652034046,3599668.15287949,-156.86976597281995,-4617.714533555526,6450.958448909447,0.9950057967958293,-4.3892368216626656e-05,0.00041576885796988183,0.09981627899503036
1.325,-2.2155847837796918e-05,0.0006134048355147626,-0.006901027917109889,-40.70653092084802,44.50905180381867,4.742786383852983,-1656455.3853024577,5091146.563460369,3599700.4080736544,-156.61336259653768,-4617.7149374202945,6451.119216714312,0.995007521278935,-4.4076746311672004e-05,0.00041723110312025876,0.09979908102681569
1.33,7.417515860067962e-06,0.0005792618788942216,-0.006906893412191364,-40.685492573531036,44.48788567676463,4.746343857935621,-1656456.1677284753,5091123.47488474,3599732.664071415,-156.35704442952806,-4617.715314109823,6451.279887619379,0.9950092422780211,-4.429210079907886e-05,0.000418750670849636,0.09978191453065925
1.335,1.1402203467562844e-06,0.0005985412032641333,-0.006897543399666297,-40.673316275670686,44.46693786092179,4.743570626086295,-1656456.9488732559,5091100.386307262,3599764.920872402,-156.10086775650643,-4617.715677078773,6451.440507066838,0.9950109644806688,-4.442537986418737e-05,0.0004201926836274813,0.09976473338682162
1.34,5.182866055659083e-06,0.0006191103505633912,-0.006919656032758305,-40.66296921465741,44.43752182969016,4.729497302682423,-1656457.728737386,5091077.297727985,3599797.178476297,-155.84478427754777,-4617.716033645443,6451.601050960248,0.995012684031937,-4.457907253024881e-05,0.0004216810895338004,0.09974757547592782
1.345,-1.7158961261981734e-06,0.0006035585574339851,-0.006897368407973435,-40.643861717169415,44.41508563673569,4.737889821641854,-1656458.5073213128,5091054.209146888,3599829.4368825536,-155.5887864239533,-4617.716405102024,6451.761451785951,0.9950144087770518,-4.472786159114264e-05,0.00042322166736537406,0.09973036252261742
1.35,1.0049090597782421e-05,0.00060785689072263,-0.006909727506188986,-40.64149013449617,44.382740541329134,4.725282013078519,-1656459.2846256036,5091031.120564033,3599861.696090703,-155.33292989343045,-4617.716736885822,6451.921807948578,0.9950161276818325,-4.488991051159706e-05,0.000424721841876161,0.09971320498963245
1.355,1.4709119317815179e-06,0.000565954266172135,-0.006897315533009979,-40.62114918413283,44.3656344524501,4.718089716361441,-1656460.060650754,5091008.031979554,3599893.9561002394,-155.07713030670934,-4617.717054723123,6452.082006691156,0.9950178493656162,-4.50237781641605e-05,0.000426235639961158,0.09969601666998765
1.36,-1.2352911396322234e-05,0.0005936455642660698,-0.006874664403663567,-40.615867416256435,44.339970056778625,4.725897011320916,-1656460.8353971997,5090984.943393394,3599926.216910606,-154.82144799376877,-4617.717409064757,6452.242139825112,0.9950195677009972,-4.516852736748707e-05,0.00042764306664134897,0.0996788592096263
1.365,-2.2298475894907763e-05,0.0005856629388569907,-0.00689741721632247,-40.596174317142975,44.3088763075703,4.724401265960431,-1656461.6088654445,5090961.854805646,3599958.4785214607,-154.56584992733622,-4617.717690344825,6452.4022021337505,0.9950212800636428,-4.5354540370119805e-05,0.00042911593435299736,0.09966175807695947
1.37,-1.2174606017190887e-06,0.0005901656743064168,-0.006906480780430997,-40.576461795926726,44.28065018842267,4.717061554248572,-1656462.3810560657,5090938.76621654,3599990.7409323594,-154.31039854090247,-4617.717952176097,6452.562157336908,0.9950229978056382,-4.556332898279029e-05,0.0004305664641701915,0.09964460032728274
1.375,-2.0213554707540763e-05,0.0006102014760010195,-0.006856009837275916,-40.57071943145574,44.264869922320294,4.720336297946684,-1656463.1519697653,5090915.6776260985,3600023.0041427547,-154.05508128185414,-4617.718224251071,6452.722000762718,0.9950247175046262,-4.572080878356465e-05,0.0004320334451625173,0.09962741997838169
1.3800000000000001,1.544840116596915e-05,0.0005748826703804848,-0.006878314833455719,-40.56626306732913,44.24200183699117,4.715693938770761,-1656463.9216070354,5090892.589034377,3600055.2681522598,-153.79982681742172,-4617.718464778014,6452.881801230533,0.9950264243123571,-4.59304783038686e-05,0.0004335455407601282,0.09961036516758832
1.385,-7.803062511001996e-06,0.0005927554015284547,-0.00686013653252084,-40.54377965014916,44.205837988617205,4.70600346754397,-1656464.6899681822,5090869.500441499,3600087.5329605294,-153.54463185232447,-4617.718685975126,6453.041506696121,0.9950281364215265,-4.604266521721981e-05,0.000434978656556757,0.09959325480746846
1.3900000000000001,1.985978454534276e-05,0.0005996591159213397,-0.006872187332527619,-40.53049724379914,44.17844257402089,4.699295745109433,-1656465.4570537484,5090846.411847499,3600119.7985669556,-153.28959461356948,-4617.718914025987,6453.201063805245,0.995029843686924,-4.6217122009051125e-05,0.0004364504447701707,0.09957618966079448
1.395,1.1211012719820564e-06,0.0005758788397132362,-0.006853132687061481,-40.514953698532,44.15352439694243,4.711739177321768,-1656466.2228643897,5090823.323252368,3600152.0649708877,-153.03466192413373,-4617.719138515031,6453.360508961496,0.9950315536525178,-4.632449715408667e-05,0.0004379462913685239,0.09955909447631343
1.4000000000000001,-1.664278400669002e-05,0.0005837304746206806,-0.0068645057322170525,-40.510395510414305,44.12868239707825,4.700850767481472,-1656466.9874007048,5090800.234656286,3600184.3321719295,-152.779864120956,-4617.719294273693,6453.519907666425,0.9950332586042802,-4.6472546519016604e-05,0.0004393783207149667,0.09954204668551596
1.405,3.930184731706395e-06,0.0006018103144700002,-0.006854922964785918,-40.484539733197856,44.09995964659147,4.69829570797897,-1656467.7506631694,5090777.146059423,3600216.6001696633,-152.52512174622976,-4617.719450966515,6453.679185934803,0.9950349660809419,-4.6666751424020734e-05,0.00044082545957088563,0.09952497059244668
1.41,-3.192077806889391e-06,0.0006013423040884422,-0.006837645038862041,-40.4775169773431,44.08370216238714,4.692056255163797,-1656468.5126523438,5090754.057461769,3600248.86896355,-152.2705480472117,-4617.719610391235,6453.838368741262,0.9950366708609425,-4.681426718506927e-05,0.00044232269340652955,0.09950791828307826
1.415,-8.396733055253029e-06,0.0005913372890352797,-0.006850102025682554,-40.46537719070644,44.0463547559193,4.695140492576532,-1656469.2733687926,5090730.968863301,3600281.138553174,-152.01603145729388,-4617.719777188232,6453.997481018781,0.9950383710486562,-4.697936468041633e-05,0.00044381699311120285,0.09949090893268941
1.42,2.0846966329289746e-05,0.0006109440610401345,-0.0068610839314396915,-40.44730465578816,44.0238711445301,4.687572147097268,-1656470.032812983,5090707.880264167,3600313.408938045,-151.76164462708763,-4617.7198765483045,6454.156467314773,0.995040074051751,-4.715493454253117e-05,0.0004452851082475092,0.09947386857195445
1.425,-1.8709964584037014e-05,0.0006011575667686241,-0.006845704526704668,-40.433585415469786,43.999966876190186,4.685379864240401,-1656470.7909855293,5090684.791664483,3600345.680117621,-151.50737391294732,-4617.7199967900115,6454.315363082181,0.9950417794729609,-4.726264588755759e-05,0.0004468092682268214,0.09945680082831805
1.43,-1.6687598973534435e-05,0.0006024762260059228,-0.006847134717353451,-40.424908789672315,43.974241595337695,4.677999933913637,-1656471.5478869872,5090661.703064229,3600377.952091464,-151.25320923984017,-4617.72010452366,6454.474174054145,0.9950434807820746,-4.7466308703243926e-05,0.0004482992494499359,0.09943977135847484
1.435,-5.54202710492405e-06,0.0005695307310617079,-0.0068270046660705306,-40.41393771275212,43.94725757416848,4.675566998109105,-1656472.3035178215,5090638.614463454,3600410.2248590845,-150.99912452929462,-4617.72020571699,6454.632874152049,0.9950451821517334,-4.7665270071440795e-05,0.0004497930134381151,0.09942273829909683
1.44,-1.8778313496947693e-05,0.0005873529495390096,-0.0068425912528645265,-40.39606625895684,43.91592101823179,4.681445189874261,-1656473.0578784796,5090615.525862233,3600442.498419955,-150.74513868389909,-4617.720282664432,6454.791473971816,0.9950468782634543,-4.782829409243763e-05,0.0004512075943608242,0.09940575527762702
1.445,2.1276380268502367e-05,0.0006033613113341832,-0.006825218830967102,-40.3807952899376,43.89331874875602,4.670639404383729,-1656473.810969579,5090592.43726076,3600474.7727736016,-150.49130111378935,-4617.720306697859,6454.949984674457,0.9950485779343776,-4.80286915726951e-05,0.00045266321873668394,0.09938873346626458
1.45,-3.766922435617116e-05,0.0005845714619412736,-0.006830966374978798,-40.36793088108809,43.86827378811305,4.679009136715521,-1656474.5627917396,5090569.348659097,3600507.047919546,-150.237563097871,-4617.720358347694,6455.108392975681,0.9950502729827851,-4.813340609101951e-05,0.0004541686202726519,0.09937175479442993
1.455,9.764167151172125e-06,0.0005987543494687037,-0.0068166250802005595,-40.35105333753873,43.84066394810283,4.671385504858098,-1656475.3133455045,5090546.260057323,3600539.3238573796,-149.98394284202902,-4617.720351444288,6455.26674061905,0.9950519691811419,-4.8380093770257605e-05,0.00045561263505131296,0.09935476186487047
1.46,1.439514096111694e-05,0.0005789496746054294,-0.006808525372560707,-40.33327185211747,43.81656682194757,4.666308971645917,-1656476.0626314676,5090523.171455566,3600571.6005866705,-149.730442366631,-4617.7203513771365,6455.4249756911995,0.9950536615151226,-4.851229121959902e-05,0.00045710371503966153,0.0993378045262687
1.465,2.324812834688081e-05,0.0005927603381565908,-0.006815441661075295,-40.324777105290664,43.79054156623914,4.662663551260189,-1656476.8106502302,5090500.082853792,3600603.8781069103,-149.47706273079865,-4617.720357967248,6455.583120339375,0.9950553515699858,-4.862804084783083e-05,0.0004585466791681013,0.09932086730485577
1.47,2.9626006828896654e-05,0.0005915441273047073,-0.006814301514100178,-40.30759315433758,43.74923524041139,4.659230854289717,-1656477.5574023058,5090476.994252042,3600636.156417619,-149.22376751017651,-4617.720342155081,6455.741163122273,0.9950570430366998,-4.87252045769782e-05,0.0004600261964744041,0.09930391283737203
1.475,-1.2680765245065036e-05,0.0005770173717255961,-0.00683529111889487,-40.290300213387525,43.73454889474524,4.6545254971603605,-1656478.3028882828,5090453.905650472,3600668.435518151,-148.9706232974647,-4617.720285677179,6455.899049652525,0.9950587339315211,-4.8806199162133617e-05,0.00046150427165783897,0.09928696116993706
1.48,-6.0051399509448565e-06,0.0005717503870772561,-0.0068161696960873175,-40.280370228352744,43.70142094109077,4.66052310978273,-1656479.0471087946,5090430.817049121,3600700.7154079867,-148.71758137813217,-4617.720255020746,6456.056884622569,0.9950604297561254,-4.898885646404922e-05,0.00046293570543025613,0.09926995730924672
1.485,-2.0288379663041412e-05,0.000582115603415139,-0.006801119131120765,-40.26636273439028,43.68050561771746,4.647024355358361,-1656479.7900643866,5090407.728448107,3600732.996086741,-148.4646553857362,-4617.720150585777,6456.214617002901,0.9950621205503801,-4.915357786183747e-05,0.0004643556957113334,0.09925300097979212
1.49,1.4488576005662942e-05,0.0005793569300096323,-0.006801080726578096,-40.24669703212948,43.6448630718078,4.64712574456308,-1656480.5317555668,5090384.639847516,3600765.2775538964,-148.21181673675872,-4617.72008561079,6456.372245197452,0.9950638073059358,-4.935638549729687e-05,0.000465797928655736,0.09923608207729899
1.495,9.621843967181179e-06,0.0005632235569137014,-0.006807739534018373,-40.23986391882921,43.62219465894512,4.637575041425938,-1656481.2721829452,5090361.551247342,3600797.5598088894,-147.95913460292502,-4617.719984158674,6456.529751993353,0.9950654937697014,-4.94719954490316e-05,0.00046724192665114776,0.0992191632012882
1.5,3.934543281678434e-06,0.0005837665445962059,-0.006794568886440839,-40.22073673651713,43.59170052537119,4.642972625753989,-1656482.011347071,5090338.462647662,3600829.842851151,-147.70651579397725,-4617.719887864923,6456.687152655761,0.9950671816134358,-4.9595718107885536e-05,0.000468644582096973,0.09920222773916985
1.5050000000000001,1.3368098763227773e-05,0.0005686123850867187,-0.006790059529001269,-40.201209739472674,43.575032585678166,4.6339677967039945,-1656482.7492484823,5090315.3740485795,3600862.1266802005,-147.4540486858929,-4617.7197449544265,6456.844467210841,0.9950688658762837,-4.9738668212435326e-05,0.00047009693268926017,0.09918532501648236
1.51,5.924491783552317e-06,0.0006131980722553881,-0.006775004240944734,-40.19377926106744,43.534795214915725,4.633154943973366,-1656483.4858878336,5090292.285450106,3600894.411295648,-147.20169186610158,-4617.719644791694,6457.001711877348,0.9950705487509685,-4.985438773397255e-05,0.00047151392430062135,0.0991684334735898
1.5150000000000001,5.79635775246395e-07,0.0005764844755850464,-0.006775107588141467,-40.17717392262676,43.518395158068145,4.625634840098246,-1656484.2212656725,5090269.196852303,3600926.6966969375,-146.94944362467834,-4617.719476120362,6457.158803909321,0.9950722275513696,-4.999966051120731e-05,0.0004730399869851932,0.09915157935786954
1.52,1.417282068094539e-06,0.000579573394757681,-0.006777982996816709,-40.15523071878493,43.48424442980311,4.633545313865611,-1656484.9553825164,5090246.108255265,3600958.98288352,-146.6972939723921,-4617.719338941379,6457.315828897824,0.9950739061324652,-5.014912916292045e-05,0.0004744733929417581,0.09913472496730008
1.5250000000000001,1.0076319637985574e-05,0.0006040639048711086,-0.006776086990491733,-40.142453930062146,43.45384968503315,4.623545129778655,-1656485.6882390473,5090223.019659062,3600991.2698549973,-146.44531837915503,-4617.719142523638,6457.472762186454,0.9950755851349599,-5.0297282958847694e-05,0.0004759146902574102,0.09911786339357974
1.53,-7.311006528824761e-06,0.0005889155672117904,-0.006765094894999979,-40.13329928709142,43.43595961755512,4.621464887636463,-1656486.4198359582,5090199.931063836,3601023.5576108065,-146.19344595800706,-4617.71894735261,6457.629561472522,0.9950772633517674,-5.042996210978029e-05,0.00047741905810877596,0.09910100649448243
1.5350000000000001,-1.6655378881044393e-05,0.0005810610955167109,-0.006785572562152858,-40.114692360345245,43.394312989408064,4.618514354417302,-1656487.150173694,5090176.842469609,3601055.8461504523,-145.94164830665434,-4617.718743575343,6457.786296781818,0.9950789385738346,-5.060212942013301e-05,0.000478881435038362,0.09908417693439482
1.54,1.373627089227634e-05,0.0005853852181532897,-0.006777484893583685,-40.093020527914646,43.37440669629851,4.615146460566534,-1656487.8792528373,5090153.753876503,3601088.1354733864,-145.69000912773043,-4617.718499251022,6457.942876807306,0.9950806185890299,-5.079562156744555e-05,0.00048032195499199263,0.0990672964156097
1.545,-5.390880487909399e-06,0.0005717140388932972,-0.0067732732975969556,-40.081810330989214,43.33628137946033,4.605414482204218,-1656488.6070741173,5090130.665284573,3601120.425579056,-145.4385028459835,-4617.718272363041,6458.099391229862,0.9950822963116982,-5.09145695820494e-05,0.00048178076000659776,0.09905043595080074
1.55,-9.392341035034904e-06,0.0006084689861365756,-0.006771954452964178,-40.06500863492674,43.31778106413687,4.603564458279585,-1656489.3336381414,5090107.576693831,3601152.7164668837,-145.18710681855288,-4617.718024626125,6458.255739693757,0.9950839727179144,-5.107770989289831e-05,0.00048320081916521264,0.09903358595935521
1.555,-9.301254545239149e-08,0.0005926804456454444,-0.006765134526914756,-40.06119141173517,43.28025174992786,4.605464497809502,-1656490.0589454616,5090084.4881043155,3601185.008136304,-144.93582124373503,-4617.717781607243,6458.412028521906,0.9950856484652592,-5.125990300453647e-05,0.0004847113233024887,0.0990167392203465
1.56,-6.145870446471366e-06,0.0006025001612795792,-0.0067575476224804336,-40.042051262918704,43.252946822088155,4.6072807127350615,-1656490.7829965812,5090061.399516216,3601217.300586826,-144.684626592531,-4617.717458162973,6458.5681803114985,0.9950873222575415,-5.1415045441856714e-05,0.0004861848527716842,0.09899990940954377
1.565,-2.020991994118801e-06,0.0005670068210012125,-0.006743519885231191,-40.02212325467093,43.22961388204427,4.596899522442884,-1656491.505792081,5090038.310929797,3601249.593817899,-144.43357330830307,-4617.717109455867,6458.72424883723,0.9950889938728121,-5.158766682557141e-05,0.00048768131368146146,0.0989830984504093
1.57,-2.023779652168899e-05,0.0005765337457890264,-0.006748804309403105,-40.00139322601407,43.20659143217102,4.595672037001471,-1656492.2273326197,5090015.222345037,3601281.887829063,-144.18264215715632,-4617.716794287696,6458.880216756491,0.9950906617750752,-5.174122643695835e-05,0.0004890904994129068,0.09896632235953742
1.575,-1.315672198966443e-05,0.0005683349842446429,-0.0067343928161531785,-39.99113212145572,43.16801118668836,4.593097733281149,-1656492.947618845,5089992.133761855,3601314.1826198837,-143.9318479276378,-4617.716478947234,6459.036111545108,0.9950923306857029,-5.1942468036880647e-05,0.000490518877580033,0.09894953311515196
1.58,7.395327970165386e-06,0.0005865686560526461,-0.00673956645656942,-39.97816482290075,43.14113082356541,4.586768459352251,-1656493.6666513886,5089969.0451803785,3601346.478189807,-143.68116961966865,-4617.716111541556,6459.191857686474,0.9950939957575745,-5.212404798270199e-05,0.0004919286128389529,0.09893277968675347
1.585,-1.0863105898832588e-05,0.0005824681211061655,-0.0067441380124835335,-39.956683853656,43.11386099149014,4.5892253077249645,-1656494.384430797,5089945.956600751,3601378.7745381873,-143.4305936745109,-4617.715739316448,6459.347494407922,0.9950956618049552,-5.225901599208692e-05,0.000493388791005041,0.09891601333178698
1.59,-8.934808358743842e-06,0.0005678784795840934,-0.006762740941100913,-39.94449897463712,43.081631830200585,4.5795344183938855,-1656495.100957707,5089922.868023043,3601411.071664552,-143.18017032364978,-4617.715344109364,6459.503051644116,0.9950973287006979,-5.2438397824811235e-05,0.0004948342522425915,0.09889923559872761
1.595,-1.3288781527640305e-05,0.0005909774282227447,-0.006722296448454462,-39.930085863334114,43.05003684299585,4.573987416228977,-1656495.8162327604,5089899.779447324,3601443.3695683507,-142.92985103739733,-4617.714943397017,6459.658467691338,0.995098999928563,-5.260939828558158e-05,0.0004962438923839131,0.09888241155748753
1.6,5.085351310798936e-06,0.000570521040314138,-0.0067096962654369895,-39.90195910573819,43.018029762304366,4.571786920528265,-1656496.530256513,5089876.690873648,3601475.668248916,-142.67965001696453,-4617.714526881874,6459.813758533445,0.9951006608442419,-5.279689034069066e-05,0.0004977099257258975,0.09886568810599262
1.605,-8.585048906486638e-06,0.0005667607588856935,-0.006710038866438015,-39.88678922030571,42.993778804217186,4.566026711558272,-1656497.2430297227,5089853.6023020595,3601507.96770567,-142.42963386156956,-4617.71410837669,6459.968942966987,0.9951023183908632,-5.2933600336238874e-05,0.0004991296116050541,0.09884899595238222
1.61,6.308650999386687e-06,0.0005768260401982037,-0.006714098660508302,-39.87202898296406,42.9573011911913,4.56856093685045,-1656497.9545531222,5089830.513732555,3601540.2679381073,-142.17972596318478,-4617.713693293162,6460.1240320036195,0.9951039757430092,-5.3103390111545786e-05,0.0005005365643721562,0.09883230293600524
1.615,-8.830029277363913e-06,0.0005722638652243453,-0.006714529648057607,-39.86021313666397,42.94429584414854,4.5597727540749196,-1656498.6648273296,5089807.425165272,3601572.5689456845,-141.92995692686858,-4617.713219961278,6460.278998802327,0.9951056338054048,-5.323861993932563e-05,0.0005019722364086061,0.09881559977183121
1.62,-4.092547774277565e-06,0.000579776985333052,-0.006716006323760397,-39.84264808723169,42.90522994020568,4.565120182053651,-1656499.3738528646,5089784.33660027,3601604.8707279433,-141.68025714082108,-4617.712781022818,6460.433904711806,0.9951072916955446,-5.341038472279665e-05,0.0005033928187857447,0.09879889552702059
1.625,1.7875042736372595e-05,0.0005984064294838152,-0.006729832585737063,-39.834878279756715,42.883118713396826,4.557219773487522,-1656500.0816303,5089761.248037636,3601637.173284425,-141.43071703294527,-4617.712272504282,6460.588688005792,0.995108949659069,-5.3572221313425913e-05,0.0005048332618691451,0.09878218757356715
1.6300000000000001,-4.567469577864667e-06,0.000572804951805234,-0.006720912063174071,-39.80105923074024,42.85592140596156,4.553935967536695,-1656500.788160206,5089738.159477541,3601669.4766145763,-141.1812453618728,-4617.711765644876,6460.743372587058,0.9951106107332307,-5.368402561701854e-05,0.0005063254737901995,0.09876544516518221
1.635,-1.0669545944339252e-05,0.0005687100141971521,-0.0067139059190385805,-39.8038769802779,42.81531949195861,4.546070503686168,-1656501.4934432548,5089715.070919918,3601701.7807179377,-140.93197413811492,-4617.711283696195,6460.897971878575,0.9951122693507444,-5.384532921558712e-05,0.000507748454647242,0.09874872495277588
1.6400000000000001,-2.250182782528957e-05,0.0005673198427269721,-0.006682971974870159,-39.77576979726421,42.78839929430813,4.55133676229295,-1656502.197480082,5089691.98236486,3601734.085593839,-140.68275677779954,-4617.7107390575575,6461.052388797202,0.9951139259603445,-5.402079360844452e-05,0.000509159742565883,0.09873202215036603
1.645,1.8939077364162234e-06,0.0005818552214668443,-0.006696429889801936,-39.76264355305239,42.76678362853397,4.5466393634668245,-1656502.9002712858,5089668.893812576,3601766.391241663,-140.4337246657506,-4617.710174636406,6461.206740764094,0.9951155746536176,-5.4225311645332435e-05,0.0005105646555081372,0.09871539629231484
1.6500000000000001,-3.4493178774418197e-06,0.0005751974931539786,-0.0067020908603481364,-39.74586312365274,42.724052705036144,4.536751881032022,-1656503.601817568,5089645.805263111,3601798.6976610385,-140.18478822872038,-4617.709611305707,6461.361009268078,0.9951172263725131,-5.437274256793978e-05,0.0005120117480233074,0.0986987368928876
1.655,-9.997935605117627e-06,0.0005835530237025751,-0.006715320622144654,-39.72109536500701,42.69461212341126,4.541756902768473,-1656504.3021195256,5089622.716716513,3601831.004851304,-139.93599483598854,-4617.709028303662,6461.51509696602,0.9951188792148182,-5.4531830787581033e-05,0.0005134409581499028,0.09868206338999005
1.6600000000000001,-1.0773294662421526e-05,0.0005740771637886479,-0.0066808217910097134,-39.71742804655235,42.67795596313719,4.531940545399245,-1656505.0011779522,5089599.628172907,3601863.3128118115,-139.68737582572678,-4617.708413881931,6461.669105998711,0.9951205350273484,-5.470928895883859e-05,0.0005148893376150981,0.09866535695342935
1.665,1.2195479348803587e-05,0.0005958379333914708,-0.006683980068240908,-39.694237005683654,42.6332057963667,4.540416383615864,-1656505.6989933783,5089576.53963234,3601895.6215421506,-139.4387946015049,-4617.707812827351,6461.823029766276,0.9951221820612522,-5.488629429842144e-05,0.0005163139563436955,0.09864873631752817
1.67,1.903696585252987e-05,0.0005780984733250961,-0.006664787454796882,-39.68053902651842,42.61190289778772,4.531495419179235,-1656506.3955663957,5089553.451094988,3601927.9310417776,-139.19041237683575,-4617.707128161267,6461.976821032031,0.9951238295692605,-5.5011528539032486e-05,0.000517798375656379,0.09863210776407103
1.675,-3.245748068455125e-05,0.0005536995866761834,-0.0066613258112856455,-39.658269222616816,42.57585592709643,4.530940535532569,-1656507.0908977326,5089530.36256101,3601960.241310127,-138.94212239993922,-4617.706463035843,6462.130518762656,0.9951254720894445,-5.511534340302056e-05,0.0005192403520403085,0.09861552692409084
1.68,2.9216091542501674e-06,0.0005769764824209753,-0.006669971227802166,-39.64274643921397,42.55344607158008,4.519760052516139,-1656507.7849880392,5089507.274030432,3601992.5523466575,-138.6940001614808,-4617.705767995027,6462.2840933468015,0.9951271135026543,-5.534124707392958e-05,0.0005206089334921618,0.0985989547386801
1.685,7.042660212851641e-06,0.0005932350322299898,-0.006682365563030978,-39.62106322124599,42.519723672451114,4.51439540946459,-1656508.477837983,5089484.185503256,3602024.864150803,-138.44597737962403,-4617.70510261088,6462.437564975003,0.9951287567432042,-5.548488294666274e-05,0.0005220441431306588,0.09858236096820373
1.69,4.179172890554187e-06,0.0005868530932879793,-0.006639914153519078,-39.60086365188224,42.48979160012749,4.512850239653162,-1656509.1694482,5089461.096979423,3602057.1767219882,-138.1981093625041,-4617.704430427317,6462.590908958273,0.9951304027384203,-5.562228955432139e-05,0.0005235208149368674,0.09856573632752205
1.695,-1.4597640692716434e-05,0.0005777328232687555,-0.006629415756163768,-39.591081151507225,42.46520300372377,4.504046022356039,-1656509.8598194423,5089438.008458992,3602089.490059636,-137.95038761594003,-4617.703742089438,6462.744150198503,0.9951320380028196,-5.576519184290199e-05,0.0005249809097418516,0.09854921727564733
1.7,-6.860471315836243e-06,0.0005788625505861722,-0.00667955694012561,-39.58002563254114,42.42327982243891,4.5070844864265975,-1656510.5489522775,5089414.919941993,3602121.8041632157,-137.7027464665688,-4617.703057216326,6462.897281619752,0.9951336704141609,-5.595254687061532e-05,0.0005264136900819725,0.09853272434059514
1.705,-1.4781954445661204e-05,0.0005721086540965109,-0.0066447051826544245,-39.55146895203988,42.394537473660954,4.503421799428926,-1656511.236847238,5089391.831428621,3602154.119032087,-137.4552376888794,-4617.702291805635,6463.050266886613,0.9951353148989648,-5.6120997363610216e-05,0.0005278511797466535,0.09851610662477477
1.71,6.112916597964021e-06,0.0005852206748772248,-0.006640391379408797,-39.54587017642902,42.3638227499992,4.495251612752214,-1656511.9235051018,5089368.7429190455,3602186.4346656417,-137.20790785118263,-4617.701538380781,6463.203155053356,0.9951369505298082,-5.63074457996329e-05,0.0005292699205671381,0.09849957559835948
1.715,-1.759366996708275e-05,0.0005841537280914502,-0.006641518585452888,-39.51754829898951,42.342862678031594,4.492906103875368,-1656512.6089265002,5089345.654413291,3602218.7510632966,-136.96065150397007,-4617.700763281723,6463.355906856328,0.9951385848074598,-5.644513418761562e-05,0.0005307264278285708,0.0984830552471437
1.72,-1.0450903039462494e-05,0.0005627365792493002,-0.006645453613472753,-39.50705365429795,42.30402584870766,4.480994738253973,-1656513.293112031,5089322.565911353,3602251.0682245553,-136.7135608589421,-4617.700012370537,6463.50859664147,0.9951402190842817,-5.664153971260517e-05,0.0005321744436410414,0.09846653209586088
1.725,4.899914079636965e-06,0.0005785101024325093,-0.006629485825863383,-39.479656570583224,42.276960001447925,4.483207354257165,-1656513.9760623714,5089299.477413207,3602283.386148823,-136.4665753263315,-4617.699245775958,6463.661110539678,0.9951418540827247,-5.681490813963445e-05,0.0005335709343916481,0.0984499991209817
1.73,1.8943370797530126e-05,0.0005544593033791246,-0.0066397356127237735,-39.474423943292216,42.24201980833893,4.488781593813805,-1656514.6577782298,5089276.388918919,3602315.7048354736,-136.21976804456293,-4617.6984694722805,6463.813549568376,0.9951434848561969,-5.6953946907865054e-05,0.000535010447714862,0.09843350582161087
1.735,-1.0754770752904929e-05,0.0005680350247107872,-0.006640037789463841,-39.45979844363759,42.22037772189987,4.477793926503529,-1656515.3382602944,5089253.300428729,3602348.0242840303,-135.97305776600058,-4617.69760679519,6463.965873180543,0.9951451179103683,-5.705214272235766e-05,0.0005363935803071404,0.09841698697958161
1.74,-8.502501302316043e-06,0.0005771897662252082,-0.006636849707584838,-39.43612280684805,42.17990531402942,4.473204698700153,-1656516.0175090432,5089230.211942779,3602380.344493955,-135.7264417325562,-4617.696772825046,6464.11809670766,0.9951467507402737,-5.72275640316413e-05,0.0005378031802354443,0.09840046739635366
1.745,4.2586200083658055e-06,0.0005549060313513682,-0.006616274074402031,-39.41783992440304,42.151974705334894,4.467782953901294,-1656516.6955251533,5089207.123461054,3602412.6654646187,-135.48000231199427,-4617.695917422183,6464.270168809456,0.9951483824977867,-5.739962976919025e-05,0.0005392361103097289,0.09838395571300686
1.75,-1.7605911620664416e-05,0.0005596211982631463,-0.006616852210559455,-39.396894413528855,42.118128663343576,4.474605105056297,-1656517.3723093888,5089184.034983606,3602444.9871953754,-135.23369189411224,-4617.695061755103,6464.422133772149,0.9951500089512819,-5.7534438825020296e-05,0.0005406167428547243,0.09836749517797652
1.7550000000000001,-2.0618215509274226e-05,0.0005644809238960142,-0.006602319192419327,-39.376952310964455,42.08233787568356,4.468826195710366,-1656518.0478624902,5089160.946510578,3602477.3096857197,-134.9875486815531,-4617.694149358306,6464.574003914055,0.9951516352632105,-5.772480441638025e-05,0.0005420037290155525,0.09835103320638214
1.76,4.167605491120499e-06,0.0005658106713850923,-0.00662976096542644,-39.361748772622704,42.05722058055205,4.464701804582742,-1656518.7221852504,5089137.858042146,3602509.6329350676,-134.74155540952478,-4617.693223359812,6464.725735259506,0.9951532577210909,-5.792383944493981e-05,0.0005434020668763847,0.09833460736751173
1.7650000000000001,4.421123651369061e-06,0.0005507952243224241,-0.006595983461042266,-39.346359805464296,42.021446041979395,4.450936950706259,-1656519.395278324,5089114.769578357,3602541.9569428354,-134.49567392246132,-4617.692292158976,6464.877371973314,0.9951548866527059,-5.8061574411529306e-05,0.0005448098021299427,0.09831811319575418
1.77,7.102539813619903e-06,0.0005441342809213629,-0.0065836256574237,-39.32651120389208,41.99524720438498,4.4517630728888475,-1656520.0671422877,5089091.681119203,3602574.281708375,-134.2499116230736,-4617.691369544844,6465.028843953928,0.9951565070285283,-5.8194941905700285e-05,0.0005461802477112427,0.0983017030333888
1.7750000000000001,-3.30697592299015e-05,0.0005687468514258978,-0.006593845754765164,-39.29547320314455,41.96635904350383,4.456339698989673,-1656520.7377777924,5089068.5926647065,3602606.607231071,-134.00429025312226,-4617.690429175451,6465.180234491845,0.9951581241048935,-5.8319984482940734e-05,0.0005475347822077036,0.09828532358633871
1.78,1.7479502500763793e-06,0.0005619607115826225,-0.0065779726199913496,-39.280236139262286,41.92866989109449,4.443519174600859,-1656521.407185692,5089045.504214951,3602638.933510538,-133.75886967527296,-4617.689472882394,6465.331552161667,0.9951597433809866,-5.855103314442409e-05,0.000548940677694656,0.09826891873729957
1.7850000000000001,1.0249158243872177e-06,0.0005882530525797705,-0.006563006064566496,-39.26518362283347,41.88984835874249,4.444587214519498,-1656522.0753667967,5089022.4157699775,3602671.260546168,-133.51357216508663,-4617.688516709105,6465.48269976021,0.9951613585001312,-5.8693769882782764e-05,0.000550338245868864,0.09825255330539721
1.79,-2.810333779428431e-05,0.0005747803440619806,-0.006587667624941588,-39.25376353375561,41.86152502122525,4.434619292524592,-1656522.742321769,5088999.327329928,3602703.5883371956,-133.2684167545246,-4617.687502900103,6465.633711371559,0.995162969636166,-5.884474307737526e-05,0.0005518010512940667,0.09823622507926186
1.795,-2.088545858273857e-06,0.0005697018948462455,-0.006567081409562377,-39.23618538439493,41.8338793761752,4.4332180565246375,-1656523.4080511967,5088976.238894941,3602735.916882964,-133.02335426567964,-4617.686491696063,6465.784595866955,0.9951645865721288,-5.9064909904989444e-05,0.0005532231804652455,0.09821983551285855
1.8,-6.406886936175608e-06,0.0005467073982946984,-0.006590149673702363,-39.209383410764175,41.791240989597604,4.433835836717949,-1656524.0725556377,5088953.1504650535,3602768.2461829158,-132.77842217354402,-4617.685463517597,6465.935384929321,0.9951661981929011,-5.921907873431912e-05,0.000554639065714941,0.09820349710114777
1.805,1.748429299574385e-05,0.0005734189892290989,-0.006562842143204175,-39.19131069281773,41.76305544267458,4.430899929825149,-1656524.735835921,5088930.062040408,3602800.576236455,-132.53369114665338,-4617.684394606588,6466.086030684935,0.9951678152372576,-5.9378377851660055e-05,0.0005559966788435605,0.09818710128018297
1.81,-2.130815901394171e-05,0.0005651936876270154,-0.006562238551372814,-39.171700686522705,41.74979402837024,4.426124726792871,-1656525.3978928782,5088906.973621136,3602832.9070429686,-132.28909170901437,-4617.68331452137,6466.236574901764,0.9951694252739512,-5.948475649646556e-05,0.0005574266166777219,0.09817077333424883
1.815,-2.0553001017016706e-05,0.0005272554333804894,-0.006563430108599901,-39.15517146320214,41.70536324834553,4.412885575550875,-1656526.0587271121,5088883.885207179,3602865.238602092,-132.04460188460374,-4617.682267988426,6466.3870743400785,0.9951710348983142,-5.96856282288683e-05,0.000558826569816271,0.09815444691866455
1.82,1.2830047800287826e-05,0.0005545800984758943,-0.006562403716289126,-39.139059012386916,41.67677211348948,4.428727597132199,-1656526.7183392476,5088860.7967984835,3602897.570913218,-131.80025229702954,-4617.681210229516,6466.53737609847,0.9951726445984306,-5.987531331045784e-05,0.000560132320301487,0.0981381175165721
