t_s,gyro_x_radps,gyro_y_radps,gyro_z_radps,accel_x_mps2,accel_y_mps2,accel_z_mps2,ins_pos_ecef_x_m,ins_pos_ecef_y_m,ins_pos_ecef_z_m,ins_vel_ecef_x_mps,ins_vel_ecef_y_mps,ins_vel_ecef_z_mps,ins_quat_w,ins_quat_x,ins_quat_y,ins_quat_z
0.0,6.185728542563177e-07,0.0005628843115312391,-0.007496091569027119,-48.92226410127168,55.54646548397218,5.143002719109961,-1658763.5840503734,5105149.374697655,3596773.925093057,-258.4057955714953,-5260.056020287632,7298.290012616031,0.9945218953682734,0.0,0.0,0.10452846326765353
0.005,5.256259377643268e-06,0.0005656949569643112,-0.007447479459137062,-48.93401737427287,55.55140710665446,5.149117585744195,-1658764.87529425,5105123.07440412,3596810.41703671,-258.09175509312814,-5260.061393679089,7298.487448454595,0.9945238540799829,-1.455556195780049e-07,1.3996635770350225e-06,0.10450982568120841
0.01,3.119787749032022e-06,0.0005711304940584287,-0.007490640060741781,-48.94211241090061,55.547242797569176,5.144150526327646,-1658766.1649678054,5105096.774083791,3596846.9099676334,-257.7776670169955,-5260.0667379340475,7298.684920925755,0.994525799741582,-2.803146944749946e-07,2.8075270156157024e-06,0.10449130892282905
0.015,-1.1653932195888376e-06,0.0005544210052335706,-0.007456513869508791,-48.94232262259076,55.54633147157481,5.136367781926384,-1658767.4530708482,5105070.473736738,3596883.403885849,-257.4635501673671,-5260.072083470295,7298.882365223923,0.9945277563291401,-4.218059285618248e-07,4.228346770860236e-06,0.10447268481698722
0.02,7.510718388323389e-06,0.0005727249764999051,-0.007466459450753731,-48.957085223268734,55.52862956779512,5.138501691927308,-1658768.7396032994,5105044.173362866,3596919.8987912457,-257.14943026769305,-5260.077465125675,7299.0797935156015,0.9945297036545832,-5.695869173957652e-07,5.606502223632119e-06,0.10445414552314189
0.025,-2.510871618424009e-06,0.0005626033361344508,-0.007490058385911188,-48.95283347112671,55.53274124476181,5.136381402190496,-1658770.0245650893,5105017.872962265,3596956.3946836116,-256.8352856861588,-5260.082775468942,7299.2771528567,0.9945316532288923,-7.005762328598205e-07,7.032432907636246e-06,0.1044355814646556
0.03,-7.1656802511595474e-06,0.0005596356083523521,-0.0074735608429692115,-48.95740527523217,55.52688090048838,5.141152982356515,-1658771.3079561936,5104991.572535026,3596992.891562834,-256.5211560348139,-5260.0881202358005,7299.474536207912,0.9945336086151627,-8.538402856727973e-07,8.430581292072923e-06,0.10441695869492973
0.035,2.267469876097407e-05,0.000590382452385357,-0.007478123789191662,-48.96133567826439,55.531942065348666,5.14816885312115,-1658772.5897766561,5104965.272081147,3597029.3894289616,-256.2070289715315,-5260.093431356015,7299.671914822029,0.9945355593450232,-1.0179026967683648e-06,9.820135843807099e-06,0.10439837690697373
0.04,8.555861586024416e-06,0.0005637387783963477,-0.007478004565766623,-48.965857663702224,55.5147287680829,5.130171057676213,-1658773.870026454,5104938.971600753,3597065.8882820983,-255.8928902064682,-5260.0987261992905,7299.869339786273,0.9945375109156643,-1.1157967259844173e-06,1.1293925672632958e-05,0.1043797837364937
0.045,-1.1144108004752737e-05,0.0005652855253938917,-0.007469063422027578,-48.9751786361447,55.51106802691543,5.135899921502097,-1658775.1487055444,5104912.671093809,3597102.3881220734,-255.57874589825767,-5260.1040513049875,7300.066650382589,0.9945394621062343,-1.241842382067296e-06,1.2697785861870935e-05,0.10436119082621774
0.05,5.654188780167147e-06,0.0005677315015250751,-0.007483340304616456,-48.98047890576265,55.5133260419909,5.145793172664756,-1658776.4258138593,5104886.370560345,3597138.8889486087,-255.26458012346382,-5260.109334178126,7300.263963747058,0.994541410614762,-1.4172722976769817e-06,1.4100352046013017e-05,0.10434262011072418
0.055,-4.683721726343519e-06,0.0005825585119301686,-0.007447953018260936,-48.96679405549365,55.50559284192986,5.138197497405473,-1658777.701351323,5104860.070000559,3597175.3907618155,-254.9504053389183,-5260.114580208168,7300.461318961484,0.9945433624980575,-1.5515742605094602e-06,1.5513381681743864e-05,0.10432401386059253
0.06,-3.8897637285335394e-06,0.0005830870163140405,-0.007498046388389511,-48.98441003649876,55.49361317871977,5.135471580464947,-1658778.9753180924,5104833.769414422,3597211.8935617204,-254.63630237334922,-5260.119874723668,7300.658642973922,0.9945453048028714,-1.7154456341438684e-06,1.6960580480465047e-05,0.10430549555972406
0.065,1.0063071656537336e-05,0.0005794931455776652,-0.007471754871318861,-48.99218808534492,55.494781152761284,5.141935219916711,-1658780.2477142112,5104807.468801925,3597248.397348091,-254.32214522425775,-5260.125124214183,7300.855905219395,0.9945472598209535,-1.8774828779958544e-06,1.8409300147737152e-05,0.1042868526718763
0.07,3.209004432274379e-06,0.0005856022829398222,-0.007478017715648377,-48.99954248514254,55.49059028732799,5.134738717459856,-1658781.5185394883,5104781.168163258,3597284.902120837,-254.0079656180445,-5260.1303427929315,7301.053193231285,0.9945492076342767,-2.0038900419879362e-06,1.98527219894179e-05,0.10426827511705768
0.075,1.790773534382067e-05,0.0005689184723677201,-0.007470649935975301,-48.98684088859051,55.484218575162885,5.142759374278148,-1658782.7877937967,5104754.867498468,3597321.407879939,-253.69375774709687,-5260.13557292147,7301.250447426391,0.9945511567303837,-2.1489317570967432e-06,2.1309546732621228e-05,0.1042496819541485
0.08,-1.259017617722047e-05,0.0005948925353590345,-0.007468604485724664,-48.99880927648637,55.48012341791402,5.141561341418579,-1658784.0554772783,5104728.566807558,3597357.914625354,-253.37963480754695,-5260.140791022807,7301.447718754503,0.994553103557906,-2.2530782743800872e-06,2.2728720095247252e-05,0.10423110707301324
0.085,8.79580548875286e-06,0.0005448647213830918,-0.007471294661027878,-49.00016040036972,55.4768518900812,5.137649753172166,-1658785.3215900413,5104702.266090611,3597394.422357075,-253.0654704702553,-5260.145987724832,7301.644969457702,0.9945550495018531,-2.439822419343245e-06,2.4204527846105703e-05,0.10421253724266846
0.09,-7.41086235080411e-06,0.0005627194045952211,-0.007480964475750509,-49.00693487320744,55.467293140766486,5.139476022559824,-1658786.5861319858,5104675.965347648,3597430.9310750095,-252.7513072347182,-5260.151197516564,7301.842204408976,0.9945569958009576,-2.560359072584904e-06,2.556151875309158e-05,0.10419396068595989
0.095,-1.1129176328112728e-05,0.0005439283548860024,-0.007471296427699025,-49.01604324525424,55.47577172986359,5.130588245794277,-1658787.849103103,5104649.664578724,3597467.4407790443,-252.4371396929218,-5260.156372272208,7302.03940947935,0.9945589442683239,-2.72584335550095e-06,2.6958681747146954e-05,0.10417536005062034
0.1,-5.681013216938176e-06,0.0005842508035098985,-0.007456153879695801,-49.026225186959266,55.469105983579155,5.128844832625976,-1658789.1105032288,5104623.363783817,3597503.9514691327,-252.12291066447943,-5260.161590574582,7302.236625868144,0.9945608898696683,-2.895678280946079e-06,2.8308154389486415e-05,0.10415678341767771
0.105,-1.3047107735794128e-05,0.0005463175311334863,-0.007461133610700651,-49.036823255595365,55.46506228656196,5.130995190945727,-1658790.370332136,5104597.062962871,3597540.4631452253,-251.80865220626322,-5260.166787508881,7302.433811190656,0.9945628311769433,-3.0624654502262274e-06,2.975930361535315e-05,0.10413824439805083
0.11,-7.847436248183204e-06,0.0005716141245854521,-0.007480284026507684,-49.03271483895695,55.45443266119044,5.137069565779356,-1658791.6285896732,5104570.762116021,3597576.9758072197,-251.49436265084077,-5260.1719527889445,7302.630986625895,0.9945647734356404,-3.2376923374943953e-06,3.1114217505388457e-05,0.10411969296120732
0.115,9.590480913220753e-06,0.0005607004184365902,-0.007470575737697174,-49.027599862875576,55.44802076761425,5.136751499932173,-1658792.885275892,5104544.461243423,3597613.4894550587,-251.1801248456918,-5260.177086302693,7302.82814903763,0.9945667203283801,-3.406576871870833e-06,3.253338245183294e-05,0.10410109387140935
0.12,-5.672309732283029e-06,0.000558772643913494,-0.00746457268615218,-49.02853723151875,55.44696913922997,5.1390578151316,-1658794.1403910227,5104518.160345145,3597650.004088678,-250.86592741063797,-5260.182224939557,7303.0252985633715,0.994568664346189,-3.5292623633718134e-06,3.3929949712831753e-05,0.10408251888257118
0.125,2.263257521322769e-05,0.0005698733910863812,-0.007459764336069619,-49.03702170394764,55.44168626994332,5.135961411715989,-1658795.393935183,5104491.859421187,3597686.519708072,-250.55173681971038,-5260.187358078627,7303.222459075598,0.9945706064534104,-3.6893954586217874e-06,3.531775228033483e-05,0.10406395878468243
0.13,-5.599589527077409e-06,0.0005878972527971342,-0.007449484734519106,-49.04357221411659,55.42574467974054,5.13592123052989,-1658796.6459083254,5104465.5584715875,3597723.036313199,-250.23752011969137,-5260.192481811776,7303.41959181547,0.9945725469608565,-3.78203808080878e-06,3.674051986789376e-05,0.10404541060337717
0.135,-2.1219432898143198e-07,0.0005717820585461821,-0.007470158434007009,-49.0473332712671,55.432123232466935,5.131464574770402,-1658797.8963103993,5104439.257496473,3597759.553903838,-249.9233093873107,-5260.197563710656,7303.616663784183,0.9945744844449949,-3.949565347689929e-06,3.820075906699567e-05,0.10402688794766296
0.14,-1.2911517253001812e-05,0.0005744543986389753,-0.00744688993959881,-49.04766033012189,55.421208329128,5.126896919155684,-1658799.1451413492,5104412.95649587,3597796.0724798865,-249.60907059497595,-5260.202677872204,7303.813755525863,0.9945764269592672,-4.099508139296479e-06,3.962232973095908e-05,0.10400831385135849
0.145,-7.911639486872294e-06,0.0005910492007583414,-0.007480009619222573,-49.045036255860026,55.41022009316392,5.1381418024522185,-1658800.3924011523,5104386.655469694,3597832.592041274,-249.2948506080068,-5260.2077923862325,7304.0107995596445,0.9945783630750099,-4.281719606601821e-06,4.1047243147780544e-05,0.10398979757564884
0.15,2.1546622128178933e-05,0.0005511600103110804,-0.007461758370486376,-49.05880431357522,55.4135552678182,5.141802361623208,-1658801.6380899863,5104360.354418086,3597869.112587879,-248.9806829976715,-5260.2128508196965,7304.207842294094,0.9945803074510048,-4.455816770757156e-06,4.251471811420887e-05,0.10397119891253218
0.155,7.0049289577816746e-06,0.0005658009291649027,-0.007461535162898802,-49.04838275335956,55.395341219233586,5.137147676399618,-1658802.8822078402,5104334.053341254,3597905.634119751,-248.66645855125026,-5260.217881972798,7304.4049066180105,0.9945822467385772,-4.5462971588671195e-06,4.389066778773335e-05,0.10395264559107871
0.16,9.036227801505325e-06,0.0005605769932544727,-0.007476515495566846,-49.071224605830885,55.399045722546,5.12206068731729,-1658804.124754772,5104307.752239251,3597942.156636774,-248.35231421772644,-5260.22291930734,7304.601902587816,0.9945841856183388,-4.676739701173912e-06,4.5299242324663354e-05,0.10393409278967441
0.165,-1.3666040134401815e-05,0.0005480851234554091,-0.007493580258352742,-49.069148564490774,55.38026149036964,5.126248858823162,-1658805.3657306768,5104281.451111989,3597978.6801386843,-248.03804773457426,-5260.2279853876935,7304.798861425702,0.9945861280423851,-4.80077583146999e-06,4.669535536346011e-05,0.1039155027036519
0.17,1.6306329987378246e-05,0.0005616349250425674,-0.007444016090175891,-49.07033675521725,55.38264386453457,5.124375214207422,-1658806.6051353873,5104255.149959515,3598015.2046252554,-247.72383640407864,-5260.233004300044,7304.99576718636,0.9945880745506728,-4.978017106771417e-06,4.80545097860066e-05,0.1038968701529017
0.17500000000000002,1.2120267907719815e-05,0.0005541697555152927,-0.007492414502327197,-49.071341740068206,55.375771373236944,5.132016440920735,-1658807.8429690262,5104228.8487819005,3598051.7300963886,-247.40961915336155,-5260.238041575087,7305.192685965333,0.9945900078351249,-5.0842464760970064e-06,4.945514107482749e-05,0.10387836080178511
0.18,-2.2304205884955415e-05,0.0005764755693749257,-0.0074599746671021455,-49.077943117212385,55.36718158147946,5.1294882504107315,-1658809.0792316387,5104202.547579199,3598088.2565521207,-247.0954258913968,-5260.243038855587,7305.389606957171,0.9945919533406731,-5.19895169237308e-06,5.083612267042457e-05,0.10385973107342468
0.185,1.1213405384441107e-06,0.0005675696301874952,-0.0074662435401743246,-49.07828174858225,55.36221334243736,5.1333476051623705,-1658810.3139232579,5104176.24635155,3598124.783992363,-246.78122171899176,-5260.248020839036,7305.586490022846,0.9945938900705215,-5.405040235181154e-06,5.226362933575962e-05,0.10384118197365741
0.19,-6.674843099952048e-06,0.0005399985520490159,-0.007482409238643398,-49.07843563770061,55.35248296574436,5.129807645281568,-1658811.5470439026,5104149.945099039,3598161.312417021,-246.46703618945892,-5260.252983504198,7305.783373025076,0.9945958280810017,-5.550570323694804e-06,5.3675072757405715e-05,0.10382261724713159
0.195,1.3029922737804817e-06,0.0005450416835514796,-0.007479295972620425,-49.080382336165776,55.35151343234543,5.125882224808625,-1658812.7785936664,5104123.643821716,3598197.8418259937,-246.15286935970835,-5260.25794551772,7305.980216135308,0.9945977699418054,-5.7083314550699475e-06,5.5015937187184047e-05,0.10380401228974406
0.2,-5.338379673205798e-06,0.0005812672703207631,-0.0074801674772391425,-49.0869146795943,55.34502607932732,5.130286652714914,-1658814.0085725817,5104097.342519541,3598234.372219165,-245.83869670066144,-5260.262924753569,7306.177052268856,0.9945997106443955,-5.847564056274291e-06,5.6371411688713854e-05,0.10378541503580739
0.20500000000000002,3.714319144357413e-06,0.0005646873391919365,-0.007463741459597658,-49.07882916576262,55.32661603239766,5.126115383374603,-1658815.2369806194,5104071.041192563,3598270.9035964916,-245.52451845324293,-5260.267866309244,7306.3738784193465,0.9946016512181568,-6.012709763674673e-06,5.781523785911203e-05,0.10376681557878552
0.21,-1.4022734311287258e-05,0.0005638144844462797,-0.007461719087434047,-49.08463686250186,55.31850406562336,5.126442352263966,-1658816.4638179427,5104044.73984088,3598307.4359577745,-245.21041082729207,-5260.272806877116,7306.570634777387,0.9946035871841655,-6.151042405162147e-06,5.922018661325958e-05,0.10374825692764379
0.215,-1.0518185971706633e-05,0.0005709069274913285,-0.007478756556538493,-49.085817382845654,55.317888293917285,5.126041840834622,-1658817.6890847161,5104018.438464554,3598343.9693027707,-244.89629858909558,-5260.277723582601,7306.767363778303,0.9946055222773081,-6.333251694666294e-06,6.061836454567542e-05,0.10372970327146905
0.22,-8.105017355222689e-07,0.000576256680534882,-0.007452274781390313,-49.090361193224446,55.31173133018672,5.12142555835029,-1658818.9127809322,5103992.13706363,3598380.5036314246,-244.58218780602752,-5260.2826459630105,7306.96409773468,0.9946074614387616,-6.508588698609807e-06,6.2035086459015e-05,0.10371110721436132
0.225,-1.1267119327845122e-05,0.0005586036890177209,-0.007458959896462382,-49.08959987808642,55.310823685544506,5.123793121375931,-1658820.134906572,5103965.835638087,3598417.038943668,-244.2680681649637,-5260.287571063012,7307.160799537169,0.9946093933849025,-6.661170327370589e-06,6.346762802895118e-05,0.10369257696674915
0.23,1.2746217996229212e-06,0.0005847900092505275,-0.007427812221888157,-49.09537112712845,55.295566547002736,5.1288556785437915,-1658821.3554616494,5103939.534187924,3598453.575239453,-243.95396275053392,-5260.2924942241725,7307.35751451711,0.9946113267191188,-6.835177429270548e-06,6.485356420336384e-05,0.10367403006216137
0.23500000000000001,-2.2438210292089536e-05,0.0005703769791423121,-0.007466256119348131,-49.09514481617799,55.28892442622157,5.125376026834545,-1658822.5744462362,5103913.232713292,3598490.1125187054,-243.63987198269044,-5260.297358631627,7307.554186413314,0.9946132516298476,-6.984781187617343e-06,6.630786454632171e-05,0.10365556056855571
0.24,7.956680816530212e-06,0.000567534005833588,-0.007444595887166162,-49.09387835026599,55.281478090751705,5.115597357864761,-1658823.7918604063,5103886.9312143205,3598526.65078125,-243.32579600794173,-5260.302229914687,7307.750831397716,0.9946151861580355,-7.1896190821628846e-06,6.772018080073838e-05,0.10363699545096292
0.245,-8.871154852879517e-08,0.0005528653300366542,-0.007457129356577189,-49.0920387039704,55.27422057120875,5.117961134871062,-1658825.0077042284,5103860.629690913,3598563.190026902,-243.01173288946833,-5260.307133293979,7307.947429504722,0.9946171147277074,-7.318138663372282e-06,6.9133303347731e-05,0.10361848415105199
0.25,-1.6538842041817644e-05,0.0005538489883105524,-0.0074695344637658295,-49.10661174316107,55.265229497146436,5.123413881575188,-1658826.2219778118,5103834.328143024,3598599.730255516,-242.69770040046254,-5260.312022457732,7308.144015931459,0.9946190461994603,-7.462865755764647e-06,7.050786722289934e-05,0.10359994165163602
0.255,4.689259016497882e-06,0.0005738087989153691,-0.007460552439791575,-49.105621522626876,55.264870072870124,5.123152054730281,-1658827.4346811431,5103808.026570848,3598636.271467001,-242.3836322166147,-5260.316847487805,7308.340578267451,0.9946209805354891,-7.648753832291344e-06,7.18806161736705e-05,0.10358136827294664
0.26,6.754661990103685e-06,0.0005776333005131435,-0.007472663009795325,-49.10367876399009,55.24650534019098,5.122011565442179,-1658828.645814161,5103781.724974523,3598672.813661319,-242.06957490444665,-5260.3216827226815,7308.537148841507,0.994622912194014,-7.787024166485977e-06,7.330849347639097e-05,0.10356281718805212
0.265,-3.7826559997810906e-05,0.000567921092487792,-0.007469386010692686,-49.11172247944348,55.23738865894413,5.125831202773145,-1658829.8553770094,5103755.423354086,3598709.3568383236,-241.75556447272487,-5260.326492415508,7308.733652992096,0.9946248466387637,-7.92115116498085e-06,7.47464151073303e-05,0.10354423595277859
0.27,1.0356593756239666e-05,0.0005745400338358441,-0.007464498876398827,-49.11793713786491,55.22493731940067,5.119618912505855,-1658831.063369785,5103729.12170971,3598745.90099779,-241.44154571665266,-5260.331257564614,7308.930133595709,0.9946267798871392,-8.163617418179355e-06,7.614864644697398e-05,0.1035256628381556
0.275,-2.9647952333254952e-06,0.0005733069914990972,-0.007465330539660217,-49.11175598946562,55.22338585935105,5.108561713998548,-1658832.2697924492,5103702.820041532,3598782.4461395005,-241.12752002142182,-5260.336013923991,7309.12655059724,0.9946287115217474,-8.287985176292345e-06,7.757980678277994e-05,0.10350710183012418
0.28,-7.307622882307882e-06,0.0005482441267063385,-0.007475251161195636,-49.109873002920246,55.21658343845648,5.118220433773565,-1658833.4746450414,5103676.518349419,3598818.9922632403,-240.8135167780473,-5260.340830956418,7309.322945269958,0.994630643023068,-8.445158611099255e-06,7.900445387998258e-05,0.10348853872044891
0.28500000000000003,9.685836338685206e-06,0.0005773234054795356,-0.007460886092179551,-49.11007142183725,55.210028969185416,5.121724918079189,-1658834.6779277155,5103650.216633326,3598855.5393689796,-240.49955287647447,-5260.345606168204,7309.519350560611,0.9946325767470575,-8.606648477895572e-06,8.036565642449439e-05,0.10346995090747653
0.29,-1.3348261363756295e-06,0.0005879853648932286,-0.007461199944249974,-49.105349831560204,55.198712219286996,5.1184540783954455,-1658835.8796406242,5103623.914893411,3598892.0874567274,-240.18561065556653,-5260.350360135825,7309.715748482501,0.9946345064010125,-8.733401914074856e-06,8.180356302583391e-05,0.10345139877410622
0.295,2.808472308412635e-06,0.0005670118562951916,-0.007470029724310435,-49.11790388451907,55.186454171848375,5.114537456514195,-1658837.0797839314,5103597.613129714,3598928.636526361,-239.87171214423313,-5260.355118760609,7309.91210498149,0.9946364357855535,-8.89031672586775e-06,8.326513121616106e-05,0.1034328458261243
0.3,-2.2112091925071347e-06,0.0005827665037123746,-0.007456015674765549,-49.12001625924982,55.17549384294083,5.113143843618953,-1658838.278357664,5103571.3113423,3598965.186577623,-239.55778091129756,-5260.3598468540895,7310.108399705327,0.9946383671092237,-9.031507309382493e-06,8.467561802434176e-05,0.10341427088544757
0.305,-2.2678490526861523e-05,0.0005649184762581105,-0.007458708464926367,-49.11303059403668,55.16397675926274,5.1092424251368795,-1658839.4753617775,5103545.009531285,3599001.7376102568,-239.2438645508705,-5260.364558966668,7310.304653873699,0.9946402944580205,-9.189249981079907e-06,8.612398279448702e-05,0.10339573075654344
0.31,-1.3666069407021017e-05,0.0005456818476332739,-0.0074476393855778,-49.116634035258144,55.166891124909135,5.107683632484909,-1658840.6707964428,5103518.707696682,3599038.2896240563,-238.93000157405794,-5260.369282425144,7310.500865958778,0.9946422221584846,-9.393273661576816e-06,8.75226759806791e-05,0.10337718390041113
0.315,1.1557071198350665e-05,0.0005641834171731022,-0.007447867141266901,-49.118589991281475,55.15202786540106,5.107598113372511,-1658841.86466175,5103492.405838427,3599074.842618951,-238.61612125811507,-5260.374019195028,7310.697092005623,0.9946441466553979,-9.569913009142738e-06,8.887586468543926e-05,0.10335866453110219
0.32,3.9721986713749045e-05,0.0005889351624670785,-0.007460287970807352,-49.12231463375639,55.13758831461479,5.107709314818206,-1658843.0569577164,5103466.103956564,3599111.3965948448,-238.30226526627067,-5260.3787262423675,7310.893265399743,0.9946460708609144,-9.688613024871921e-06,9.028157712370183e-05,0.10334014455337492
0.325,1.213677446028616e-05,0.0005595064561985813,-0.00744639842945329,-49.12325968816685,55.12205909155743,5.113306081815895,-1658844.2476844424,5103439.802051248,3599147.9515514756,-237.98842517523317,-5260.3834000696625,7311.089386933389,0.9946479979229683,-9.743675156611885e-06,9.175611371117842e-05,0.10332159364676562
0.33,5.786690383257048e-06,0.0005855188451471258,-0.007459962834881313,-49.12339428504037,55.121040839950666,5.099967122181208,-1658845.4368420616,5103413.500122692,3599184.5074886177,-237.67462247062605,-5260.388022245205,7311.2854699427835,0.9946499210559763,-9.859726487086382e-06,9.315034722529512e-05,0.10330307724912509
0.335,-3.1204806909731575e-06,0.0005475270804770007,-0.007446295690061369,-49.11883902525977,55.11671755028988,5.112236117221834,-1658846.6244306427,5103387.198170881,3599221.064406095,-237.36081001924856,-5260.392702277205,7311.481520980809,0.9946518473385134,-9.998289149070155e-06,9.460762346599277e-05,0.10328452708665795
0.34,-2.0902706680416795e-05,0.0005731444836421258,-0.007444557021994034,-49.121296837633885,55.10505739495947,5.109944799251834,-1658847.8104502868,5103360.896195772,3599257.622303903,-237.04704767987707,-5260.397341325421,7311.677602265216,0.9946537697534789,-1.0149187506811304e-05,9.596812863561837e-05,0.10326601087630814
0.34500000000000003,5.097462671218916e-06,0.0005620477325748532,-0.007450670503276554,-49.12345968395419,55.09286042119768,5.111908396038557,-1658848.994901153,5103334.594197504,3599294.181182002,-236.73329873804744,-5260.401965607891,7311.873637299703,0.994655691366417,-1.0350916856746865e-05,9.73877441836349e-05,0.10324749895702566
0.35000000000000003,9.83204197385827e-07,0.0005503790814913965,-0.007443714880464236,-49.119944627934515,55.080418905670534,5.104074975714129,-1658850.1777833272,5103308.292176196,3599330.7410401856,-236.41957094500694,-5260.406557726304,7312.069636058695,0.9946576142139135,-1.0485130370982346e-05,9.878647705412785e-05,0.10322897179367699
0.355,-7.962138178481236e-06,0.000582881426807745,-0.007451265766389077,-49.123645882064125,55.07149138301408,5.103899702323595,-1658851.3590969485,5103281.990131884,3599367.301878213,-236.1058776106171,-5260.411167417262,7312.265575003062,0.9946595349224284,-1.0626561502991441e-05,0.00010015513251421132,0.10321046189182641
0.36,-2.4542581934675554e-05,0.0005755015057107688,-0.007456287728780968,-49.118960639332485,55.06658082977012,5.106070048661423,-1658852.5388421172,5103255.688064571,3599403.86369586,-235.79218983099545,-5260.415757670626,7312.461483642461,0.9946614572240899,-1.079862490223259e-05,0.00010160230152567416,0.10319193317896454
0.365,-6.610569830192067e-06,0.0005623668598472528,-0.007419763742343394,-49.12059804528627,55.04486489551349,5.105998477363747,-1658853.717018944,5103229.385974312,3599440.4264930487,-235.47854084931043,-5260.420345674988,7312.657391990296,0.9946633804752673,-1.1010015523406822e-05,0.00010302684163827197,0.10317339194658313
0.37,-1.0549837107966082e-05,0.0005656513671559377,-0.007453509791086251,-49.119096044454835,55.03088717232341,5.108820040294455,-1658854.8936276212,5103203.083861226,3599476.9902695795,-235.16493009516384,-5260.424888873885,7312.853220211785,0.9946652939636145,-1.1173418078929936e-05,0.00010442334660849978,0.10315494149674001
0.375,-4.815441328857529e-07,0.0005724904380239131,-0.007457911408931972,-49.127057297716625,55.03462634529863,5.097305691948404,-1658856.0686683494,5103176.7817255035,3599513.5550251557,-234.85136120193818,-5260.429399958703,7313.049010415447,0.9946672158078902,-1.1347472104391188e-05,0.00010582700217614994,0.10313640709691425
0.38,-4.787730656504961e-06,0.0005717414705069591,-0.0074449849069775954,-49.128907715871755,55.014961777252346,5.09940147207999,-1658857.2421411055,5103150.479567112,3599550.120759648,-234.5377411846848,-5260.433956488282,7313.244786390332,0.9946691384379763,-1.1498254181090446e-05,0.00010725026009979219,0.10311786171282764
0.385,-5.386639215861532e-06,0.0005818438101207333,-0.007416587388154318,-49.11322606562798,55.00603191531281,5.095604211847261,-1658858.4140458521,5103124.177386062,3599586.687472855,-234.2241574777303,-5260.438463889634,7313.44049645463,0.9946710573885457,-1.1659547785085255e-05,0.0001086705458085258,0.103099348437903
0.39,3.1909740438822187e-06,0.0005692678695212593,-0.007441012409172811,-49.11622202183624,54.98944111275598,5.094126489563951,-1658859.5843828993,5103097.875182387,3599623.2551645525,-233.91066144684817,-5260.4430060063505,7313.636182556322,0.9946729686716043,-1.1824926824249621e-05,0.00011011579920162771,0.10308090574252729
0.395,-5.9246116302360605e-06,0.00057014556979168,-0.0074409179732922905,-49.11994941718289,54.98887697284988,5.096448501610414,-1658860.753152519,5103071.572956078,3599659.8238345194,-233.59718638026408,-5260.447517693477,7313.831804201126,0.9946748859076192,-1.1965741934690161e-05,0.0001115319899344151,0.10306240227212349
0.4,-2.0849258400692157e-05,0.0005657125948767015,-0.0074474180149808064,-49.122345298815844,54.96487127522167,5.1003918393594505,-1658861.9203547467,5103045.270707236,3599696.393482621,-233.28370470784537,-5260.452019129167,7314.027436441197,0.9946768027725599,-1.2129450769729808e-05,0.00011294801451185196,0.10304389900319379
0.405,-1.9720902549156754e-06,0.0005568548009895129,-0.007430936663808093,-49.115590625524206,54.967671214061326,5.094606582083844,-1658863.0859896764,5103018.968436055,3599732.964108687,-232.97026713960702,-5260.456453087334,7314.222989829824,0.9946787209662632,-1.2329132458242e-05,0.00011434917067506344,0.10302537953911423
0.41000000000000003,8.319921681822673e-06,0.0005908690974238849,-0.007419727581975089,-49.12253977570931,54.94393123362806,5.094407594752887,-1658864.2500574775,5102992.666142577,3599769.5357125453,-232.65685336634547,-5260.4609380529455,7314.418553681925,0.9946806345720833,-1.2479586193286224e-05,0.00011573316272729759,0.10300690101819661
0.41500000000000004,8.644800212308248e-06,0.0005567819665607159,-0.007430236680899434,-49.12218834708982,54.94442074498091,5.086782823295401,-1658865.4125582548,5102966.363826824,3599806.1082939906,-232.34345749564042,-5260.465363096797,7314.614024291649,0.9946825449370377,-1.261320278659676e-05,0.00011720438886466218,0.10298845033117342
0.42,-3.005072396929696e-06,0.0005707799671684136,-0.007430776830975268,-49.11904891809018,54.92437716202295,5.097429597967292,-1658866.573492045,5102940.061488847,3599842.681852765,-232.03005859832018,-5260.469827849159,7314.809485413377,0.9946844576729975,-1.273723812538346e-05,0.0001185909335916659,0.10296997347638831
0.425,2.0000110809583524e-06,0.0005579695307052625,-0.007441121076406722,-49.12037662893897,54.91601700653379,5.092788496328287,-1658867.7328590164,5102913.75912873,3599879.256388746,-231.7167299406509,-5260.474219123786,7315.004907182981,0.9946863701982644,-1.289384692228956e-05,0.00012000928827673626,0.10295149524567695
0.43,2.1371023676833464e-06,0.0005577017899877622,-0.00742200983444488,-49.11835320696039,54.91273096638927,5.088099288789503,-1658868.890659368,5102887.456746645,3599915.8319017403,-231.4034106599678,-5260.478614699249,7315.200290467157,0.9946882850441974,-1.3034715463475219e-05,0.00012139707487235668,0.10293299125489372
0.435,1.3360203087111173e-05,0.0005446740912202094,-0.007417725413053461,-49.114479524565674,54.89885688116601,5.0897865887895595,-1658870.0468931606,5102861.154342526,3599952.408391613,-231.0901064684472,-5260.483033279116,7315.395658567639,0.994690194626995,-1.317516839387462e-05,0.0001227842315302662,0.10291453475266858
0.44,5.465300196010061e-07,0.0005540021825958326,-0.00745264848307372,-49.11798319847034,54.87903950067085,5.08648835267018,-1658871.2015605594,5102834.851916369,3599988.985858229,-230.77685307233375,-5260.487429304387,7315.590987898818,0.9946921027676856,-1.3284359384966589e-05,0.0001241418795267511,0.10289608886599999
0.445,-1.555801631951678e-06,0.0005416391578226419,-0.007415562010828438,-49.11598034989234,54.86821876439648,5.081467861464373,-1658872.3546617469,5102808.5494683115,3600025.564301284,-230.46362185190304,-5260.491793648876,7315.786234141774,0.9946940195431164,-1.3427824918949955e-05,0.00012551942657519882,0.10287755610299724
0.45,-6.029984825522264e-06,0.0005761941360145666,-0.007432920290964655,-49.11192645672274,54.86384109357583,5.0875474241881635,-1658873.5061968488,5102782.246998414,3600062.1437204536,-230.15041890952372,-5260.496165046255,7315.981433692398,0.9946959264384949,-1.3573327057867978e-05,0.00012686569055119068,0.10285911552957125
0.455,8.177621814763013e-06,0.0005757632029222914,-0.0074196972456785915,-49.118776876132806,54.851198591936615,5.087142803665226,-1658874.6561660357,5102755.944506706,3600098.7241156516,-229.83725590324988,-5260.500518665849,7316.176645411984,0.9946978374417921,-1.373884656327807e-05,0.00012829673260799347,0.10284063175522977
0.46,-1.0685155302784672e-05,0.0005503658136326095,-0.007436435472781547,-49.10329909391932,54.82323167190571,5.095012477608399,-1658875.8045694025,5102729.641993312,3600135.305486786,-229.52409075142384,-5260.504838723808,7316.371808436271,0.9946997447011262,-1.3868920340160885e-05,0.00012973035625204828,0.10282218082302132
0.465,-8.323134681196335e-06,0.0005831575856457079,-0.007418079883174002,-49.10399770987184,54.826898105108135,5.084100670735468,-1658876.951407284,5102703.339458456,3600171.8878335636,-229.21106189781528,-5260.5091034661555,7316.566902632509,0.9947016559256997,-1.4039378002457944e-05,0.00013109597354945353,0.10280368823837323
0.47000000000000003,-1.462420962007989e-05,0.0005772087259316804,-0.007410357679396842,-49.09988767913637,54.80947129209867,5.0820845819340885,-1658878.096679977,5102677.036902132,3600208.4711557957,-228.89801529863757,-5260.5134260453215,7316.761990119849,0.9947035620771041,-1.4212383667224163e-05,0.00013254374358152951,0.10278524126198765
0.47500000000000003,-1.4771236721354055e-05,0.0005567433781453464,-0.0074123019018584296,-49.097085649290605,54.80301926662579,5.079155296085402,-1658879.2403875708,5102650.7343242355,3600245.0554533065,-228.58502224331076,-5260.517732996009,7316.957014259177,0.9947054659020939,-1.4399527385087597e-05,0.0001339751013185213,0.10276681345563042
0.48,-3.910621799140929e-06,0.0005651888645012921,-0.007425947339434881,-49.09747800038978,54.769914981722195,5.085259010909576,-1658880.3825302657,5102624.4317247765,3600281.640725882,-228.27205573639444,-5260.522050327819,7317.1520159006,0.9947073698899551,-1.458177947431104e-05,0.0001353555286822415,0.10274838077975097
0.485,-3.427440759407666e-06,0.0005611254161286054,-0.007414943562468175,-49.104309611732546,54.76509448006972,5.081759544630041,-1658881.523108309,5102598.129103963,3600318.2269731956,-227.9591614946538,-5260.526274925796,7317.346909438373,0.9947092770363128,-1.4739197741812319e-05,0.00013675974724698727,0.10272991413129545
0.49,-7.309475609502533e-06,0.000541460983947671,-0.007436896787306757,-49.099484653482165,54.75249162172701,5.07737067931783,-1658882.66212183,5102571.826462036,3600354.8141949126,-227.64624696940746,-5260.53049607928,7317.541777364548,0.9947111810137401,-1.4894367086114232e-05,0.00013815398538824877,0.10271147481116444
0.495,1.680491968716966e-05,0.0005854399132669027,-0.007429919045603695,-49.103862252843186,54.74512607278478,5.074695413827475,-1658883.7995708908,5102545.523798987,3600391.4023908447,-227.3333773507371,-5260.53472346127,7317.736595463245,0.9947130902902148,-1.5054148359170352e-05,0.00013949832476397805,0.10269298086471602
0.5,-2.2866831507913543e-05,0.0005665972965674887,-0.007428460893767664,-49.091707593373116,54.72272275964284,5.073255839997897,-1658884.9354555944,5102519.22111482,3600427.991560788,-227.02050411195708,-5260.53894341295,7317.931381999546,0.9947149974153476,-1.5165250750241032e-05,0.00014095822134342213,0.10267450422466129
0.505,1.413560853771986e-05,0.0005585379163972743,-0.007438673668509499,-49.097772777691,54.71980578652044,5.073546393278441,-1658886.0697761804,5102492.918409585,3600464.581704477,-226.70773021752504,-5260.5431505926545,7318.126093432796,0.9947169038261308,-1.537017119609033e-05,0.00014236107715221862,0.10265603118978343
0.51,-7.509208640993629e-07,0.0005408439800452326,-0.007414791760171521,-49.09376105763087,54.70793132849356,5.065911424240215,-1658887.2025328581,5102466.615683345,3600501.1728217057,-226.39494085685027,-5260.547345338783,7318.320798216262,0.9947188125167038,-1.548100952991969e-05,0.00014375338682401075,0.10263753270934
0.515,1.9276513068066744e-05,0.0005748222384652623,-0.00741160186075705,-49.08980165023507,54.68979073936914,5.0694766547287875,-1658888.3337256783,5102440.312936084,3600537.7649123175,-226.08218728675166,-5260.55155910205,7318.515446394213,0.9947207147403221,-1.5624318897816968e-05,0.00014509787635025529,0.10261909358881412
0.52,-1.8768468514805186e-06,0.0005547325602982721,-0.007425716338835455,-49.07878662312747,54.674147040728904,5.0709938788239945,-1658889.463354884,5102414.010167853,3600574.3579760427,-225.76949498216976,-5260.555733295823,7318.710043759378,0.9947226157904396,-1.572653988990795e-05,0.00014653200113752126,0.10260066235689708
0.525,-9.53839481203682e-06,0.0005547323765450932,-0.007408164358170351,-49.08427902049541,54.66976971958865,5.067618979026954,-1658890.5914208426,5102387.70737878,3600610.952012654,-225.456888394675,-5260.559896154092,7318.904600712003,0.9947245201233241,-1.5876217325177055e-05,0.0001479107403042753,0.10258219599804548
0.53,-1.69329145525934e-06,0.0005581204080286485,-0.007407426188154748,-49.09369770909311,54.63900113100623,5.070643348006115,-1658891.7179237306,5102361.404568892,3600647.547021994,-225.1442668505908,-5260.5640588438355,7319.099135324465,0.9947264196106836,-1.6044941041563092e-05,0.00014928751481354253,0.10256377325502371
0.535,7.4112305469043e-06,0.0005346588947411783,-0.007412476769372471,-49.083478824439716,54.64208566185142,5.067457409298335,-1658892.84286357,5102335.101738426,3600684.14300372,-224.8316688826358,-5260.568127675474,7319.293555052431,0.9947283185647319,-1.6195023871219237e-05,0.00015067472627050064,0.10254535230925627
0.54,4.048656919523102e-06,0.0005606266641610257,-0.007396421474581866,-49.07287499917518,54.6203826526682,5.066462033432935,-1658893.9662405245,5102308.798887494,3600720.739957599,-224.51911299402028,-5260.57224494769,7319.48799650416,0.9947302184795512,-1.6316452610253832e-05,0.00015200592695787014,0.10252691876573664
0.545,3.165052342721664e-05,0.0005621240922324104,-0.007403252774099672,-49.066590920109,54.61570745191036,5.062027973948338,-1658895.088054929,5102282.496016016,3600757.337883504,-224.20664872683201,-5260.576346117722,7319.682365533634,0.9947321139263933,-1.645289336487582e-05,0.0001534008436743666,0.10250852511382842
0.55,-1.980280467056853e-06,0.000570581261455434,-0.007420637079925503,-49.0703538760263,54.58863535918114,5.063585695053428,-1658896.2083071042,5102256.193123965,3600793.9367812127,-223.89422140033088,-5260.5804747769635,7319.876717969,0.994734010782068,-1.6521079323968482e-05,0.00015480655747311613,0.10249011442770646
0.555,1.3069791276904252e-05,0.0005400597689147057,-0.007410362492405614,-49.06184851599019,54.57549925410655,5.060481148990916,-1658897.3269972438,5102229.890211439,3600830.5366504355,-223.58183437619368,-5260.584535374978,7320.070971217863,0.9947359117438338,-1.667507320707402e-05,0.0001562246850226852,0.10247166048695386
0.56,-2.3671692187209467e-05,0.000555248986744648,-0.007384154887464142,-49.06361555395165,54.569360775612786,5.054349213817322,-1658898.4441256078,5102203.5872785915,3600867.1374908118,-223.26951132102366,-5260.588603448174,7320.265179158463,0.9947378097422169,-1.678381698440807e-05,0.00015757076639941886,0.10245323205743287
0.5650000000000001,1.5673670399100024e-05,0.0005603599147104635,-0.007406069680882953,-49.06866413170654,54.55691697837718,5.055897676948014,-1658899.5596923602,5102177.284325369,3600903.739302142,-222.95718962362503,-5260.592685819614,7320.4593530248685,0.9947397006783752,-1.698781125021098e-05,0.00015894521133548523,0.10243486878075576
0.5700000000000001,2.714668363251166e-05,0.0005611223776487342,-0.007405926457348156,-49.05442157004434,54.54800666229871,5.048472267078901,-1658900.673697524,5102150.981351826,3600940.3420842392,-222.64487584855198,-5260.596731037786,7320.653485890167,0.9947415968843333,-1.7095277075881093e-05,0.00016034244123622502,0.10241645095422804
0.5750000000000001,-4.6766776865620554e-07,0.0005658857823789264,-0.00740207560523144,-49.0540376018697,54.524648365744305,5.05440935931483,-1658901.78614131,5102124.678357943,3600976.9458369124,-222.33263851216446,-5260.60082219297,7320.847583333943,0.9947434927108445,-1.717440635133337e-05,0.00016174450478505185,0.10239803344393424
0.58,-9.128509770587982e-07,0.0005319389240701867,-0.00741558269664439,-49.05257944210704,54.50990492422428,5.052061630354544,-1658902.8970240534,5102098.375343775,3601013.5505599016,-222.02045889749022,-5260.604845043194,7321.0416123995965,0.9947453872056491,-1.7323426462834203e-05,0.00016315134521992765,0.10237962548584023
0.585,5.868761553565175e-06,0.0005596086228879008,-0.0073894302355795,-49.04853468377937,54.4947280218261,5.057675405237538,-1658904.0063459894,5102072.072309528,3601050.1562528973,-221.70831554126232,-5260.608854187918,7321.235585766864,0.994747284828268,-1.7464870520879913e-05,0.0001644736498675489,0.10236118390378969
0.59,-4.018969094754164e-06,0.0005524860799850415,-0.007381876404331933,-49.04256051281065,54.478680236651925,5.048131260564147,-1658905.114107356,5102045.769255335,3601086.762915677,-221.3962310173398,-5260.612822614838,7321.42952611065,0.9947491754047764,-1.759651960062707e-05,0.00016586650192954976,0.1023428073202189
0.595,-1.116662067066823e-05,0.000562313008891934,-0.007416953986987305,-49.03648894642784,54.4683478008097,5.044811775928581,-1658906.2203084237,5102019.466181248,3601123.3705479647,-221.08419609945287,-5260.616811978076,7321.623389127444,0.9947510637100458,-1.7750932719207087e-05,0.00016723911156250632,0.10232444949139119
0.6,-1.7698817764820498e-06,0.0005528450982560806,-0.007387700760020274,-49.03827357284071,54.44719821287081,5.059185972692622,-1658907.324949436,5101993.163087191,3601159.9791494766,-220.7722088220062,-5260.620811030276,7321.817215476138,0.9947529606417914,-1.7925649670278625e-05,0.0001686343295024338,0.10230600439624515
0.605,7.3892055741337884e-06,0.0005664717391100196,-0.007372727363916141,-49.03800774738389,54.44163459652456,5.052133396029509,-1658908.428030649,5101966.859973391,3601196.5887200255,-220.46027633126627,-5260.624709158636,7322.011004153799,0.9947548497533947,-1.8074564137575155e-05,0.0001700084064719282,0.102287632011662
0.61,-2.084317715188628e-05,0.0005525902086252983,-0.007382764181127516,-49.03185111110631,54.41363999489709,5.049065567587969,-1658909.52955222,5101940.556840042,3601233.199259436,-220.1483520365248,-5260.628630672708,7322.204760190889,0.9947567346900522,-1.820417921033324e-05,0.00017141871413088632,0.10226929682469496
0.615,5.50580718060731e-06,0.0005536061433476569,-0.00739166324893577,-49.02438917579063,54.405591034687504,5.048244986152875,-1658910.62951437,5101914.253687163,3601269.8107673586,-219.83650811061491,-5260.63252058482,7322.39840865346,0.99475862185716,-1.8400460324338536e-05,0.0001727872811447495,0.102250936654988
0.62,-5.679591493280909e-06,0.0005515322957719518,-0.007383884859586056,-49.023818670224884,54.3987210467278,5.049107165833161,-1658911.7279174333,5101887.950514816,3601306.4232434747,-219.52471709796055,-5260.636418430059,7322.592037854289,0.994760510958702,-1.8531477778493546e-05,0.00017416510973536107,0.10223255430772109
0.625,-2.401613473283687e-06,0.0005543441733487117,-0.007374720518295837,-49.01426240289064,54.3748676950759,5.049322325510852,-1658912.8247615963,5101861.647323004,3601343.036687698,-219.21294816393132,-5260.640306089591,7322.785651506107,0.9947623977313858,-1.868977878489117e-05,0.0001755349223927138,0.10221419127443823
0.63,1.563209348056878e-05,0.0005780319592907434,-0.0073748125985630625,-49.01651674139938,54.35887525714729,5.035601659242779,-1658913.9200471456,5101835.344111824,3601379.651099793,-218.90127151010387,-5260.644165702646,7322.979186418043,0.9947642818207177,-1.8840642274531454e-05,0.00017691256593307014,0.10219585099545807
0.635,-2.9588621070982537e-06,0.0005591281689399914,-0.007382075146460893,-49.01541868188319,54.33106813842189,5.0396859560504135,-1658915.0137743296,5101809.040881296,3601416.266479323,-218.58960209279317,-5260.648045904512,7323.172625571955,0.9947661655838131,-1.8952709563197997e-05,0.0001783537262420932,0.10217751044344749
0.64,8.336398887063138e-06,0.0005585042651940524,-0.007382035012864352,-49.00814148757363,54.325158146480554,5.037885983576741,-1658916.1059433327,5101782.73763154,3601452.882825821,-218.27799919351014,-5260.651856310232,7323.3659736535865,0.9947680508691398,-1.910618536205157e-05,0.00017974312507445676,0.10215915180430625
0.645,5.052342009843764e-07,0.000563236452689005,-0.007398672133734589,-49.00776153468521,54.31123774842168,5.0398931349930205,-1658917.196554439,5101756.434362692,3601489.500139026,-217.96644324129764,-5260.655682986808,7323.559308262645,0.9947699358042843,-1.923141138073032e-05,0.00018113385703409085,0.10214079322493426
0.65,-1.2442393980089428e-05,0.0005451052897974995,-0.007391262279631865,-48.997129877348456,54.29482480143677,5.0305408543203045,-1658918.285607854,5101730.131074788,3601526.1184188006,-217.65492274011368,-5260.659478401502,7323.75260173421,0.9947718246437018,-1.937732881810708e-05,0.00018253435702284226,0.10212239323854436
0.655,4.903102918640208e-06,0.0005594948890280477,-0.0073668809031899535,-48.9990892915017,54.2741683790858,5.030308674079398,-1658919.3731038445,5101703.827767836,3601562.7376648574,-217.34347357366138,-5260.663302704705,7323.945820828412,0.9947737112570778,-1.9550813712351647e-05,0.0001838864607758936,0.10210401165162643
0.66,-6.122080644527814e-06,0.0005479887083164563,-0.007381916401993209,-48.9895790016629,54.25867841809458,5.029681094718538,-1658920.4590426753,5101677.524441868,3601599.357876817,-217.03205869608706,-5260.667084382669,7324.138963199961,0.9947755913006588,-1.9684823370102194e-05,0.00018527877925732098,0.10208569065596948
0.665,-2.228715126009378e-05,0.0005688355118577968,-0.007363599157418745,-48.9882171843432,54.241412533595245,5.035429992536521,-1658921.543424621,5101651.221097006,3601635.9790543714,-216.72071961374334,-5260.670860325357,7324.3320583480645,0.9947774748462828,-1.9843322403252962e-05,0.0001866396679824941,0.10206733223872431
0.67,1.3972980750604904e-05,0.0005768610393445838,-0.007376339765548305,-48.98917158320337,54.22395008767336,5.024632538234174,-1658922.626249998,5101624.917733394,3601672.601197292,-216.40943121401216,-5260.674584628995,7324.525110043341,0.994779353367495,-2.0047333947189695e-05,0.00018804827756496053,0.10204901934706839
0.675,6.188933197832982e-06,0.0005204256064143433,-0.007369763099309936,-48.97075013644766,54.221692580298715,5.031228302431546,-1658923.7075189818,5101598.614351139,3601709.2243052404,-216.09816223621965,-5260.678317279111,7324.718069252704,0.9947812347974196,-2.016322189025364e-05,0.00018948609629455414,0.10203067471787584
0.68,1.857088085061634e-05,0.0005692988642836573,-0.0073500390807939376,-48.96413879108013,54.199191320631996,5.026440992557806,-1658924.787231873,5101572.310950185,3601745.84837807,-215.78699428185104,-5260.6820643064875,7324.911062654912,0.9947831142362661,-2.028406990879582e-05,0.00019078157748773434,0.10201234641621722
0.685,1.553652984560446e-05,0.0005489660849876626,-0.007365191398977905,-48.962747845712116,54.17492958076673,5.027737160924719,-1658925.8653890998,5101546.007530524,3601782.4734156425,-215.47589647020737,-5260.685800006076,7325.103966269573,0.9947849882835605,-2.038657932114857e-05,0.00019220176312417062,0.1019940671242498
0.6900000000000001,1.335587223777502e-06,0.000584197987645681,-0.00734408225315709,-48.969913311703735,54.172779652023856,5.023108316369132,-1658926.941990982,5101519.704092311,3601819.099417522,-215.16485640665948,-5260.68948555974,7325.296785591422,0.9947868658655641,-2.0491457767249983e-05,0.00019357060734940943,0.10197575011682171
0.6950000000000001,1.5553181646123197e-05,0.0005659432751833264,-0.0073506665534346614,-48.960734585189535,54.14408665929683,5.023382722096067,-1658928.0170375933,5101493.400635653,3601855.726383453,-214.85378810743393,-5260.693177424827,7325.48958661684,0.9947887377099343,-2.06406252683603e-05,0.00019502345279582764,0.10195748557753397
0.7000000000000001,-2.1173892401562022e-05,0.0005532734559738693,-0.007355844541522828,-48.95231859919221,54.12978626898301,5.0244628441355275,-1658929.0905291114,5101467.097160636,3601892.3543131417,-214.54281914680712,-5260.696829010985,7325.6822890352905,0.9947906109045366,-2.074978420423135e-05,0.00019643452285580834,0.10193920462267553
0.705,6.63573259911524e-06,0.0005715416302195644,-0.007361848839223277,-48.94990133422331,54.11324015999005,5.020460791502985,-1658930.162465962,5101440.793667393,3601928.9832062465,-214.2319210779255,-5260.700468544447,7325.874952879012,0.9947924850849267,-2.094705616871913e-05,0.00019780472321564876,0.10192091077432666
0.71,3.383529375799151e-06,0.0005356563267769349,-0.00736658661815877,-48.948308235777,54.09290480964046,5.018574484914872,-1658931.232848426,5101414.490155975,3601965.6130625033,-213.92106454934202,-5260.704098647831,7326.067549755107,0.994794360448988,-2.107982385276011e-05,0.0001992274417556263,0.1019026019439961
0.715,1.8109695589219537e-05,0.0005671780371841499,-0.007355991009897037,-48.943292557904336,54.08189850923269,5.010753577460761,-1658932.3016767262,5101388.186626477,3602002.2438815515,-213.61025545967348,-5260.7077005654255,7326.260069543605,0.9947962366986398,-2.1211540058434944e-05,0.00020056008521437494,0.10188428129965194
0.72,8.588120892931872e-07,0.0005730437031075751,-0.007348392286893502,-48.94858526182114,54.063781376570034,5.012183265251157,-1658933.3689510764,5101361.88307891,3602038.8756630663,-213.29948462797816,-5260.711326125609,7326.452536365643,0.9947981098956433,-2.1314656024448238e-05,0.00020197487427605552,0.10186598696273066
0.725,6.402266255296978e-06,0.0005539659412874714,-0.007345563315282427,-48.934305862817325,54.03864343757685,5.016030904825973,-1658934.4346716146,5101335.579513341,3602075.5084067537,-212.98873060670044,-5260.714901349556,7326.644938592649,0.9947999808155307,-2.1462164791706623e-05,0.0002033998583617507,0.10184771149757398
0.73,1.0050321220594278e-05,0.0005485049112674927,-0.00735919317078478,-48.92826907850836,54.02637243179357,5.010031676950896,-1658935.4988386831,5101309.2759299865,3602112.1421122774,-212.67809688970448,-5260.718440817702,7326.837270888565,0.9948018506875219,-2.1591027976954297e-05,0.0002047788076077844,0.10182944303171243
0.735,7.785922851555783e-06,0.0005696579916875833,-0.007362630166601353,-48.913294020526386,54.00737178583319,5.009642164315287,-1658936.561452702,5101282.972328895,3602148.776779332,-212.36751061287393,-5260.721995895286,7327.029551015808,0.9948037236943145,-2.1709435168940347e-05,0.00020614510314012353,0.10181114063216694
0.74,-1.5885913158695656e-06,0.0005653684967390783,-0.007354788911518558,-48.913245405273514,53.987581456286456,5.016137567980814,-1658937.6225140565,5101256.668710036,3602185.4124076464,-212.05703120883982,-5260.725547420644,7327.221774850653,0.994805597226065,-2.1838859752768033e-05,0.0002075634299711806,0.10179282965012307
0.745,-4.874699528620991e-06,0.00056028986473812,-0.007335437522845702,-48.904899029273786,53.97919917603932,5.0091838707720076,-1658938.6820231397,5101230.365073578,3602222.0489969486,-211.74660205643283,-5260.729035782157,7327.413945937868,0.9948074684253846,-2.1990503208605984e-05,0.00020896870347991345,0.10177453813983317
0.75,-3.3083166199146193e-08,0.0005355325337735686,-0.007347244332980825,-48.90531068433431,53.95401992633664,4.99838780007955,-1658939.739980201,5101204.061419596,3602258.6865470135,-211.43622243280484,-5260.732557166061,7327.606079913228,0.9948093343660688,-2.2149016971312547e-05,0.00021036051122366413,0.10175629472428502
0.755,-1.894448933119281e-05,0.0005672661664151873,-0.007333097879443078,-48.90367445818682,53.940184838296204,4.998498581367943,-1658940.7963854533,5101177.757748027,3602295.325057439,-211.12587852450127,-5260.736070233804,7327.798090475263,0.9948112029866193,-2.2289197687192072e-05,0.00021169197784490093,0.10173802190928202
0.76,1.7845690670728012e-06,0.0005682333140775271,-0.007346346434740343,-48.889929138136544,53.91602357080104,5.004034854972018,-1658941.851239082,5101151.454058946,3602331.9645278053,-210.81557297489599,-5260.739562220727,7327.990055887539,0.9948130676543568,-2.248447539812161e-05,0.0002130975575932499,0.10171978425069263
0.765,-1.1869438035195812e-05,0.0005550762814238182,-0.007304894127308959,-48.8863159951191,53.89758326982219,4.989071584835856,-1658942.9045414787,5101125.150352508,3602368.6049578437,-210.5053856770351,-5260.743012914956,7328.181959538615,0.9948149353548886,-2.262845225921775e-05,0.00021451081324090464,0.1017015135969619
0.77,2.1441015126020025e-05,0.0005381639417377394,-0.00734558449517162,-48.88507998150506,53.88232802297808,4.99725429356923,-1658943.9562930292,5101098.846628738,3602405.2463471396,-210.1952345926017,-5260.746495408027,7328.37375886681,0.9948167921866676,-2.280301968289796e-05,0.00021588787754675006,0.10168334601042221
0.775,1.8202107306170816e-06,0.0005443500169194636,-0.0073078233472686355,-48.87789179253018,53.85047698715072,4.997904806176632,-1658945.0064939482,5101072.542887697,3602441.8886953606,-209.88513295429726,-5260.7499208686,7328.565529463753,0.9948186590378115,-2.289046530667711e-05,0.00021723134555717984,0.10166507717392337
0.78,-6.766355200811879e-06,0.0005320051393453663,-0.007334599495244329,-48.86875012055823,53.83114930344398,4.987227204193477,-1658946.0551446,5101046.239129662,3602478.532002154,-209.57512781308344,-5260.753293192198,7328.757187937637,0.9948205159514073,-2.302826054088934e-05,0.0002185852138363052,0.10164690222716691
0.785,-7.681986724081995e-06,0.0005301232005247209,-0.0073490898553097445,-48.85433067168871,53.823812756088024,4.988548214222684,-1658947.1022453965,5101019.935354704,3602515.1762670116,-209.26519070755361,-5260.756689705537,7328.9487550264985,0.9948223793404681,-2.3184288582888052e-05,0.0002199061961620388,0.1016286606579241
0.79,6.964946528520915e-06,0.0005889245483403834,-0.0073523179005868765,-48.855341176023295,53.80681246191451,4.989821038945458,-1658948.1477967207,5100993.631562727,3602551.8214896927,-208.95533901523098,-5260.760101477714,7329.140317392405,0.9948242460751985,-2.3342123662842683e-05,0.0002212222644502654,0.10161038301654046
0.795,-8.807814507422121e-06,0.0005653212263210729,-0.00733393911782691,-48.85068818647994,53.790679596682104,4.991799719916506,-1658949.1917988707,5100967.327753785,3602588.467670043,-208.6455209969497,-5260.763474896056,7329.3318227687405,0.9948261132603607,-2.34784697781134e-05,0.0002226882956924906,0.10159209730076689
0.8,-7.964479407448463e-06,0.0005608309180021504,-0.0073064929330728745,-48.84125758856673,53.76171225823077,4.991656675746673,-1658950.2342520768,5100941.023928046,3602625.1148078036,-208.33576140168535,-5260.766820721856,7329.523281442863,0.9948279754525512,-2.3648038762398267e-05,0.000224091618965531,0.10157385726994311
0.805,-4.524302544455539e-06,0.0005513186195284194,-0.00733800940976231,-48.83804248274061,53.75073566951268,4.986619686357084,-1658951.2751567354,5100914.720085675,3602661.7629026053,-208.0261020804772,-5260.770127722103,7329.714639322612,0.9948298303426195,-2.3814354684376954e-05,0.00022548399022685576,0.10155568546527384
0.81,1.160158114459305e-05,0.0005182187327756199,-0.007326136094907506,-48.83326010529032,53.728260405840416,4.973261088250867,-1658952.3145131816,5100888.4162267465,3602698.4119540798,-207.7164763561075,-5260.773443632611,7329.905950520421,0.9948316929046601,-2.39697173180643e-05,0.00022685357516393498,0.10153743524117637
0.8150000000000001,-2.2525636570071874e-05,0.0005431982622383718,-0.007316157391445721,-48.83266315025053,53.71094398916028,4.9781527098194065,-1658953.352321626,5100862.112351192,3602735.061961822,-207.40690137193113,-5260.776778149287,7330.097146427243,0.9948335521364348,-2.4076564665457087e-05,0.00022814493214713514,0.10151921450549377
0.8200000000000001,1.478089064897774e-05,0.0005580218759240937,-0.007346674994937802,-48.81425314176528,53.68987705425211,4.981083664047377,-1658954.3885823104,5100835.808459091,3602771.712925427,-207.09737243895887,-5260.78006257221,7330.2882954913075,0.9948354084843141,-2.4274623321840562e-05,0.00022948975441836137,0.1015010185714576
0.8250000000000001,-3.1703601467489226e-06,0.00055998994432309,-0.007335946284998555,-48.80801327854812,53.673935917787254,4.9752681891479895,-1658955.4232956755,5100809.504550602,3602808.3648446454,-206.78797364381666,-5260.783332587264,7330.4793918743835,0.9948372722337827,-2.438367637283068e-05,0.00023088090902576727,0.10148274668084634
0.8300000000000001,3.0357228022505924e-05,0.0005571970728409158,-0.007315138371567111,-48.806188764424995,53.662050457290434,4.972087586154091,-1658956.4564621847,5100783.200625747,3602845.01771918,-206.47862999550821,-5260.786609417093,7330.6704218220475,0.9948391329220261,-2.453786896882346e-05,0.00023227240462286665,0.10146450144939585
0.835,3.7149006323369734e-06,0.000549760552979051,-0.007310292277632288,-48.79750834919285,53.63489684186882,4.974325301493959,-1658957.488082054,5100756.896684517,3602881.671548748,-206.1693177395661,-5260.78988291708,7330.8614054520285,0.9948409880001765,-2.4607954638638474e-05,0.00023366545992350182,0.10144630791573507
0.84,1.4786266292363403e-05,0.0005330000873839533,-0.007303867422227763,-48.78724041917751,53.61557468706417,4.967907746146402,-1658958.5181556037,5100730.5927270325,3602918.3263330157,-205.860102126617,-5260.793110736546,7331.052301649485,0.994842841517579,-2.474241364882016e-05,0.0002350332631424358,0.1014281264167272
0.845,-5.563584784255084e-06,0.0005571747288193419,-0.00731109926266585,-48.784279285750664,53.5883514753489,4.962095269322235,-1658959.5466832716,5100704.288753386,3602954.9820715683,-205.55096500019854,-5260.796348226242,7331.243119298913,0.9948446930825502,-2.4845083246891575e-05,0.00023636218897656568,0.10140996085752083
0.85,8.187126035900468e-06,0.0005428019974687067,-0.007300279702104525,-48.775174369400816,53.57265051131188,4.959318142070024,-1658960.5736654056,5100677.984763615,3602991.638763921,-205.24188863835897,-5260.799559886619,7331.433821895928,0.99484654613155,-2.500449833673295e-05,0.00023774608012254968,0.10139177728840892
0.855,-2.1271139273337305e-05,0.0005366461105947447,-0.007309485935593394,-48.77271050948976,53.54600416262447,4.958095399012574,-1658961.5991023364,5100651.680757783,3603028.2964096502,-204.9328836712153,-5260.802772780978,7331.624469847507,0.9948483961136714,-2.512606417751252e-05,0.00023909771073228806,0.10137362058751442
0.86,-1.841475110717496e-05,0.0005504152282878986,-0.007326445645279956,-48.76413555112134,53.525986991143554,4.968967909120731,-1658962.6229944008,5100625.376735996,3603064.955008369,-204.6239420717287,-5260.805942044579,7331.815017500156,0.9948502480971918,-2.531934167163182e-05,0.00024042656452054537,0.10135544097360483
0.865,-2.353388761665688e-05,0.0005549890220498861,-0.007308989081875276,-48.754085455165594,53.52047453008391,4.966335588533204,-1658963.6453419928,5100599.072698521,3603101.6145597394,-204.31509477134435,-5260.809047787409,7332.00553067672,0.9948521040351938,-2.5509014092438783e-05,0.00024179038645596415,0.10133721914206681
0.87,4.3774584147446505e-06,0.0005187657973330214,-0.007329740659400591,-48.746826182905,53.497406521889594,4.964267190893522,-1658964.666145492,5100572.768645453,3603138.2750636456,-204.00630488759597,-5260.812179520169,7332.196031761327,0.9948539552127446,-2.571256665079592e-05,0.0002431642881464641,0.10131904069596918
0.875,-9.753055416406298e-06,0.0005672851963025356,-0.007293223701378479,-48.73583981206571,53.47605499758109,4.964609410287557,-1658965.685405235,5100546.464576782,3603174.9365198463,-203.69759230585373,-5260.815289019375,7332.386448700683,0.9948558113355292,-2.583753727715915e-05,0.0002444551662522313,0.10130081058915208
0.88,2.4251364755433633e-05,0.0005400471046401163,-0.007295200100044841,-48.73440169209743,53.45068743840676,4.95103606060968,-1658966.70312165,5100520.160492614,3603211.598927964,-203.3889737346306,-5260.818378385873,7332.576798327642,0.9948576578455237,-2.600991777357467e-05,0.00024586314256844097,0.10128267127657335
0.885,1.9621492661555377e-06,0.0005475022347244593,-0.00729034658437712,-48.717343881680115,53.43030784371672,4.954582866874497,-1658967.7192950738,5100493.856392983,3603248.2622875036,-203.08039574310746,-5260.821473596222,7332.767017435964,0.9948595045421746,-2.60908287148623e-05,0.0002472119837599962,0.10126452699540196
0.89,-1.3484981823866676e-05,0.0005220381327229886,-0.00727518578935454,-48.711727084625025,53.418241959674894,4.953533371879119,-1658968.7339259165,5100467.552277923,3603284.926598015,-202.77194131749923,-5260.824550636982,7332.957187179106,0.9948613496715069,-2.6229060593064507e-05,0.0002485737244358946,0.10124639476508719
0.895,9.696630861929861e-06,0.0005620085300836801,-0.00729405016973225,-48.70987010236807,53.39568184877518,4.9550757944229,-1658969.7470146155,5100441.248147489,3603321.59185928,-202.4635382555813,-5260.827623230541,7333.147318899581,0.9948631906466422,-2.6399257053962713e-05,0.00024986822298004576,0.10122830021952049
0.9,7.9832943497941e-06,0.0005439674292010605,-0.007282323529322498,-48.69680930732002,53.37856516367785,4.949248194223089,-1658970.7585614407,5100414.944001807,3603358.258071013,-202.1551919288211,-5260.830649403242,7333.33737405366,0.9948650360405747,-2.652192429566476e-05,0.0002512679994765884,0.10121015870438117
0.905,-4.0311688272551113e-07,0.0005403708307068629,-0.007285909888318957,-48.69405837301103,53.350407513251675,4.934265144732324,-1658971.768566754,5100388.639840949,3603394.9252328565,-201.84693332317482,-5260.8336936201085,7333.527363533953,0.9948668781464054,-2.6644280651961805e-05,0.0002526224719979175,0.10119204632378176
0.91,-4.516204811742986e-06,0.0005682573613146235,-0.0072952489404857854,-48.69304075916235,53.32582900520058,4.940345420671855,-1658972.7770308983,5100362.335664852,3603431.593344286,-201.53872436267147,-5260.836745498759,7333.717208285215,0.9948687208294859,-2.678658780335401e-05,0.0002539658772590446,0.10117392499510125
0.915,1.0791504739056615e-05,0.0005629374761453421,-0.007299649947939903,-48.68066812335991,53.306198955305646,4.9374555936654065,-1658973.7839541538,5100336.031473671,3603468.2624047576,-201.23057783892543,-5260.83972668962,7333.906980290956,0.994870565524346,-2.694618430599531e-05,0.00025537760005937056,0.10115578040553279
0.92,-3.4324131293506204e-06,0.0005612329539428137,-0.0072903064408316185,-48.6703483335207,53.29447296020592,4.943448931418289,-1658974.7893369088,5100309.727267587,3603504.9324139184,-200.92252423609503,-5260.842707168031,7334.096684043226,0.9948724110034901,-2.7066365292471776e-05,0.0002567799621430573,0.10113762482659773
0.925,-1.6766745580941616e-05,0.0005397909422790091,-0.007280531429880467,-48.65855619627527,53.273315372672585,4.937429171571268,-1658975.7931795982,5100283.423046654,3603541.603371565,-200.61455149888263,-5260.845665831925,7334.2863747731,0.9948742537874515,-2.722148675213135e-05,0.00025817448888461477,0.10111949246206403
0.93,2.3225028762433745e-05,0.0005449909476807622,-0.007262646727645356,-48.65860181097547,53.2393941558747,4.93250289648143,-1658976.7954826464,5100257.118810911,3603578.2752774567,-200.3066678036114,-5260.848631415827,7334.475981790946,0.9948760937813155,-2.740434634033269e-05,0.00025951231503955964,0.1011013843861264
0.935,-1.1491720025004597e-05,0.0005420193787293782,-0.007232438687164938,-48.64451481228099,53.224768186756215,4.925173414416764,-1658977.796246427,5100230.814560467,3603614.948131027,-199.99884446319322,-5260.85154607632,7334.665446434022,0.9948779289235112,-2.7489041484938613e-05,0.00026087318379558943,0.10108332073294565
0.9400000000000001,1.9148942131365492e-07,0.00052249956522391,-0.007267015796510224,-48.634129318169755,53.206774156505574,4.921467726081395,-1658978.7954713057,5100204.510295371,3603651.6219317736,-199.69110696763516,-5260.854492452577,7334.854852097269,0.9948797561029847,-2.7659313296980607e-05,0.0002622178904599295,0.10106533220252076
0.9450000000000001,8.292018843298226e-07,0.0005536265731705861,-0.007290081901151046,-48.61822598531385,53.16862497262762,4.935717294140983,-1658979.7931576967,5100178.2060155375,3603688.296679384,-199.3834494019327,-5260.8574409498615,7335.044192091755,0.9948815917038566,-2.779561735423141e-05,0.0002635169968970832,0.10104725763224316
0.9500000000000001,-1.0199800091976496e-05,0.0005423693418632776,-0.007277091430836417,-48.61701552097965,53.15820650405095,4.9230029306626015,-1658980.78930621,5100151.9017212195,3603724.9723734627,-199.07595589585395,-5260.860285914988,7335.233439408799,0.9948834327799672,-2.7938213724004883e-05,0.0002648936819594272,0.10102912565563463
0.9550000000000001,7.5866741811681445e-06,0.0005525828041572348,-0.00726246478926525,-48.60662951370142,53.14037372306672,4.932056959629025,-1658981.7839172897,5100125.597412587,3603761.649013609,-198.76847600777455,-5260.863167105015,7335.4226190695435,0.9948852702499847,-2.8105389639505654e-05,0.0002662395831323888,0.10101102596343785
0.96,-3.4083772206357844e-06,0.0005236059028440535,-0.007286674796726187,-48.59187940473481,53.11234147992721,4.928481440897482,-1658982.77699121,5100099.293089668,3603798.3265995802,-198.4610921555986,-5260.86600053256,7335.611769439776,0.9948871036903381,-2.8230896237796385e-05,0.00026761537987765013,0.10099296260470605
0.965,2.1360217956984843e-05,0.0005465870235184531,-0.007276270051289762,-48.59695809843858,53.09256915605281,4.92096602626305,-1658983.7685285057,5100072.988752614,3603835.0051310477,-198.1538260751213,-5260.868821469117,7335.800817410875,0.9948889429310451,-2.8376449953459058e-05,0.0002689163269046504,0.10097483900622894
0.97,4.7070323871316635e-06,0.0005418960993313683,-0.007255616020699313,-48.58513275927725,53.067163729058066,4.925475666601713,-1658984.7585294931,5100046.6844015,3603871.6846075137,-197.84656890917407,-5260.8716238049155,7335.989769016992,0.9948907792000524,-2.8466192948371488e-05,0.00027028068624959206,0.10095674123474392
0.975,2.7259231437080617e-06,0.0005373190733975477,-0.0072621638121908895,-48.572405408607,53.04663417794939,4.9260021802266465,-1658985.7469944705,5100020.380036486,3603908.3650285588,-197.5394220428924,-5260.874381811202,7336.178649080751,0.9948926099280151,-2.8596158278741542e-05,0.0002716291764532909,0.10093869481260775
0.98,1.1746584474622801e-05,0.0005553344942204378,-0.007246291093751843,-48.56262325962717,53.03544356553648,4.910923640393389,-1658986.7339239647,5099994.075657721,3603945.046393849,-197.23237559516463,-5260.877124217869,7336.36746696841,0.9948944419818074,-2.8729900525873227e-05,0.0002729657820492927,0.1009206320728457
0.985,-1.4891267082275871e-06,0.0005292644237275872,-0.007259231401547562,-48.5455260688482,52.99776031689004,4.925556917106128,-1658987.7193183524,5099967.77126509,3603981.7287030527,-196.92537950685218,-5260.879927928908,7336.556214515524,0.9948962696901649,-2.8845740736319768e-05,0.0002743494732272832,0.10090260877145116
0.99,1.3740821590842282e-05,0.0005483172277479415,-0.007238540307481081,-48.54656524659422,52.9825021911566,4.911546848982056,-1658988.7031781822,5099941.466858696,3604018.4119557724,-196.61855242691098,-5260.882629997012,7336.744873300407,0.9948981003508073,-2.8987933866543007e-05,0.00027566498204721553,0.10088455326199577
0.995,-1.3550310344121167e-05,0.0005444211887723832,-0.007273924754997976,-48.532276765964895,52.953535986290134,4.906994312109202,-1658989.6855039028,5099915.162438727,3604055.0961515536,-196.3117358612526,-5260.88535764452,7336.933439205807,0.9948999254523474,-2.9097037445145566e-05,0.00027703172243823425,0.10086654917117399
1.0,-1.2879370609807683e-05,0.0005375340566683798,-0.00724286420454855,-48.522328249598665,52.93723748587826,4.903161361861312,-1658990.6662958309,5099888.858005149,3604091.781289891,-196.00503536248928,-5260.888073494446,7337.121895738157,0.9949017591481066,-2.9273062933452346e-05,0.0002783818878356443,0.10084845705619468
1.0050000000000001,-1.0869039449843974e-05,0.0005323813765666599,-0.007247288771358543,-48.51442404606566,52.914399856622396,4.912997323039828,-1658991.6455544434,5099862.553557978,3604128.467370362,-195.69840958854476,-5260.890794954447,7337.310292764346,0.9949035846882662,-2.9445661605910712e-05,0.00027971509452245284,0.10083044216335141
1.01,4.084858129816359e-06,0.0005449648720669381,-0.007236714455731878,-48.50166141084725,52.88804325699121,4.893283825581815,-1658992.6232801639,5099836.249097368,3604165.1543926946,-195.39187865906854,-5260.89344892339,7337.498640210861,0.9949054110193264,-2.9611964280976992e-05,0.0002810359914979739,0.10081241623117829
1.0150000000000001,1.828262640209957e-05,0.0005221133192385397,-0.007256520714200225,-48.50446782097389,52.87048742796236,4.898831843255918,-1658993.5994734424,5099809.944623361,3604201.842356408,-195.08543276789416,-5260.896153742809,7337.686845185232,0.9949072343496704,-2.9744236664293494e-05,0.0002823919564794528,0.10079441655544845
1.02,-4.392870293108568e-06,0.000543721970301994,-0.0072433723752435095,-48.489169930923765,52.84868752196241,4.892151355938675,-1658994.574134571,5099783.640135982,3604238.531261024,-194.77901866903247,-5260.898798102923,7337.875001150327,0.9949090623597934,-2.9835451092385005e-05,0.00028369465959630176,0.10077636757465866
1.025,4.179084239868071e-06,0.0005532955510039525,-0.007231783581468637,-48.47912302864598,52.81359609426108,4.898979745020334,-1658995.5472638914,5099757.335635343,3604275.221106206,-194.47270950437664,-5260.9014575801375,7338.063071710984,0.9949108867116884,-2.9988500431619495e-05,0.0002850453973216105,0.10075835127855816
1.03,-7.177713173853829e-06,0.0005708728028640734,-0.007232319743027794,-48.47087289318646,52.80052336753498,4.8881106146605795,-1658996.5188619727,5099731.031121604,3604311.9118914763,-194.16652297149594,-5260.904037650924,7338.251036289911,0.9949127078106383,-3.0122632220940985e-05,0.0002864221072110662,0.10074036376699726
1.035,7.687436924602412e-06,0.0005353453538121927,-0.007211068876614671,-48.460513535747495,52.77909011297079,4.889305006296816,-1658997.488929252,5099704.726594873,3604348.6036164,-193.86038865942126,-5260.906654886882,7338.438933318503,0.9949145287039862,-3.0289438786320135e-05,0.00028783967632430116,0.10072237489552978
1.04,-2.748379115405872e-06,0.0005334735702429647,-0.00721959834210444,-48.44739336247849,52.76485215281946,4.887385053482215,-1658998.4574660899,5099678.422055119,3604385.2962806444,-193.55434655698502,-5260.909246868173,7338.62676433002,0.9949163439467278,-3.0410310142538596e-05,0.0002891726231473395,0.10070443884002109
1.045,-1.0904439419564083e-05,0.0005318121009989417,-0.00722924136588359,-48.439974207033416,52.732386122196125,4.8823369794395735,-1658999.4244729364,5099652.117502381,3604421.989883935,-193.24839207159107,-5260.911848030654,7338.814552079344,0.9949181610119132,-3.0556673322597754e-05,0.0002904982862246514,0.1006864815439904
1.05,1.1263664863510564e-05,0.000546618297459591,-0.007243298774538218,-48.427879457046224,52.70012709202897,4.881046606892575,-1659000.3899502377,5099625.812936719,3604458.684425838,-192.94252841397218,-5260.914417195312,7339.00220906398,0.9949199801786789,-3.0722911808406504e-05,0.0002918177628926899,0.10066850023593853
1.055,8.248245642481995e-06,0.0005532418099761052,-0.0072106683612205204,-48.42167230433676,52.68312742721983,4.877852051228623,-1659001.3538985113,5099599.508358302,3604495.379905737,-192.63678099943192,-5260.916949622021,7339.18975050826,0.9949218025467719,-3.083774810891147e-05,0.0002931796449112302,0.10065048391245583
1.06,3.4787722662584298e-06,0.0005403423166261842,-0.007224399921032253,-48.410654495654185,52.65995785635274,4.877842311582162,-1659002.3163181974,5099573.203767238,3604532.0763231837,-192.33109354393082,-5260.919475757337,7339.377228215768,0.9949236163724521,-3.096172739801724e-05,0.0002945572452831551,0.10063254871940064
1.065,-1.8685491616784023e-05,0.0005294743410222449,-0.00719733354731621,-48.39022841742873,52.63678548912897,4.883613113883001,-1659003.2772096884,5099546.899163602,3604568.773677829,-192.02550278299756,-5260.9219786974645,7339.564629980744,0.9949254333360797,-3.109433467082967e-05,0.0002959015595586589,0.10061457934327118
1.07,-9.740767107030925e-06,0.0005127329146335508,-0.00723593159636045,-48.39037991665762,52.61522656501775,4.869955024994804,-1659004.2365735911,5099520.594547518,3604605.4719693535,-191.72005833735537,-5260.924454954356,7339.751979748631,0.9949272431727333,-3.12793176936599e-05,0.00029721326865794024,0.1005966772740639
1.075,7.753656241683887e-06,0.0005390786378860458,-0.007209175810395554,-48.37467928544162,52.58923783108181,4.871841661287931,-1659005.1944103371,5099494.289919023,3604642.171197335,-191.4146400315525,-5260.926942649211,7339.939212637776,0.9949290624040742,-3.143787068097248e-05,0.0002984855829125758,0.10057867916097796
1.08,-6.025838154393906e-06,0.0005480316495385555,-0.007200009159278887,-48.36721272533558,52.5601022354097,4.86770034554586,-1659006.1507203043,5099467.98527816,3604678.8713612845,-191.10934690609162,-5260.929402863281,7340.126367290971,0.9949308745633743,-3.15595139620094e-05,0.00029982782840155565,0.10056074755007337
1.085,-2.792920190498146e-05,0.0005390254746878825,-0.0071984902462634125,-48.35754888780636,52.53675933372093,4.863954466633887,-1659007.1055040215,5099441.680625065,3604715.572460721,-190.80413993986102,-5260.931835183188,7340.313407245516,0.9949326840857564,-3.1717675276593e-05,0.0003011888793945901,0.10054283871644257
1.09,7.974279328893686e-06,0.0005343457222996948,-0.007190370197051542,-48.341666892045396,52.511543115395405,4.866451815144433,-1659008.058761919,5099415.375959837,3604752.274495136,-190.49901906510988,-5260.934255844002,7340.500358934226,0.9949344929072628,-3.192805260239833e-05,0.00030252202349972913,0.10052493364530403
1.095,1.6873495225168496e-05,0.0005221471424386005,-0.007185718094081593,-48.33170326901048,52.49359680696632,4.8614592356582715,-1659009.0104945255,5099389.071282576,3604788.977464127,-190.19402353644054,-5260.9366487003535,7340.687237326552,0.9949362993708517,-3.204794366736027e-05,0.00030385255102459874,0.1005070487119767
1.1,1.4686944655845421e-05,0.0005481142994971846,-0.007191191326906129,-48.3228235541376,52.46038697895255,4.864393769594993,-1659009.9607023448,5099362.766593334,3604825.6813673354,-189.88910412327732,-5260.939047793854,7340.874046110178,0.9949381043524709,-3.2142630697566586e-05,0.00030515497288359527,0.1004891753116002
1.105,6.914378238153423e-06,0.000534634830913392,-0.007214653832631719,-48.31500133450496,52.43913020629924,4.859460963248961,-1659010.909385839,5099336.461892254,3604862.386204312,-189.58429356500235,-5260.941384603404,7341.060744551547,0.9949399103659958,-3.2249284144468685e-05,0.00030652143417706857,0.10047128826435119
1.11,1.332479933608302e-06,0.0005173144184586852,-0.007186302994721327,-48.304983509984105,52.42240182689008,4.85851299127813,-1659011.8565454616,5099310.157179504,3604899.0919745695,-189.27955554085366,-5260.943715398323,7341.247358340757,0.994941721958047,-3.237190290265781e-05,0.0003078524130264015,0.10045334283192334
1.115,1.1437025384671972e-07,0.0005482071317059135,-0.0071869198264240845,-48.298018465728134,52.391863861490165,4.851821467375302,-1659012.8021815927,5099283.852455117,3604935.798677762,-188.97489688044476,-5260.946039412479,7341.433918838823,0.9949435261190097,-3.250403425606801e-05,0.00030913891026653135,0.10043546789104689
1.12,1.4609800250132723e-05,0.0005445314519076017,-0.007188687978825677,-48.28059460970852,52.371919170361004,4.851769640741068,-1659013.7462946381,5099257.547719165,3604972.5063134376,-188.67032129709332,-5260.948341300367,7341.620351318,0.9949453300879469,-3.2646952761766304e-05,0.0003105019427652807,0.10041759138172118
1.125,-9.967001714458963e-06,0.000530602776295556,-0.007203656000746913,-48.26827682262895,52.33920713530877,4.853919558015282,-1659014.6888851044,5099231.24297171,3605009.214881131,-188.36586520232856,-5260.950640610425,7341.806726033522,0.9949471341816765,-3.275289447117067e-05,0.0003118594712581666,0.10039971043079333
1.1300000000000001,1.1728489310928772e-05,0.0005520990323111577,-0.007196490223424431,-48.25791165732557,52.312680640326526,4.845795497200176,-1659015.629953596,5099204.938212886,3605045.9243804286,-188.0615314562297,-5260.952888869571,7341.992993068899,0.994948941717397,-3.291648329894787e-05,0.0003131761839247294,0.10038179223651453
1.135,-3.879255507101088e-06,0.0005387301965216467,-0.00719070465623766,-48.24544777304595,52.30256181835873,4.843945738658907,-1659016.5695006421,5099178.633442822,3605082.6348107792,-187.7572869852186,-5260.955136826178,7342.179147189811,0.9949507471155947,-3.3031496322788027e-05,0.000314551810852538,0.10036389181472856
1.1400000000000001,-6.42494297430735e-06,0.0005513675995921485,-0.007168995242059158,-48.23896143412188,52.25731875853095,4.838667719107052,-1659017.5075266592,5099152.328661476,3605119.346171833,-187.45311979093037,-5260.957401682248,7342.365274333705,0.9949525507477198,-3.318197275865288e-05,0.0003158902686878754,0.10034600576455939
1.145,-1.2061336035531774e-05,0.0005402843567230739,-0.007161444868372444,-48.222438477232366,52.24769045265412,4.835274360755962,-1659018.4440321128,5099126.023868961,3605156.058463062,-187.14906172656111,-5260.959604046839,7342.551217281451,0.9949543486011098,-3.3341934417175544e-05,0.0003172595236388798,0.10032817368242797
1.1500000000000001,-1.2131490194342252e-05,0.000539454388125646,-0.007175287208003218,-48.215385439349944,52.22102385478869,4.833056904646043,-1659019.379017508,5099099.719065354,3605192.771683941,-186.84509624991526,-5260.961838813068,7342.737134225377,0.9949561442479208,-3.351313005712962e-05,0.00031859979709255974,0.10031036035400376
1.155,-7.969432759934204e-06,0.0005146161304449029,-0.007166912178642151,-48.19643326658401,52.19092004022905,4.838552816589682,-1659020.312483281,5099073.41425065,3605229.485834155,-186.54121297017346,-5260.964042822539,7342.9229514036715,0.9949579430453592,-3.368430307620905e-05,0.00031993798723475023,0.10029251256200439
1.16,-1.3439340002830552e-05,0.0005280780188159555,-0.007157747861326976,-48.18929423390088,52.16628841860782,4.832295638870983,-1659021.2444300167,5099047.109425038,3605266.2009132495,-186.2374813482336,-5260.96620215191,7343.108686259908,0.9949597394416204,-3.3838888977286976e-05,0.0003212154389823832,0.10027468556836386
1.165,7.024482415329926e-06,0.0005431218662693585,-0.007182590054477833,-48.176895909563946,52.151289884188145,4.830777098428784,-1659022.1748582786,5099020.804588654,3605302.9169207606,-185.93382344930484,-5260.968351509706,7343.294318371519,0.9949615332085419,-3.4010448068432246e-05,0.00032252500526104913,0.10025688134097357
1.17,-1.7993386242379723e-05,0.0005347898076348278,-0.007163535960187699,-48.17432440957395,52.10680891328935,4.82960741488536,-1659023.1037684665,5098994.499741512,3605339.633856318,-185.63025164818492,-5260.970505097718,7343.4799044491465,0.9949633328700875,-3.4134896011913755e-05,0.00032387711854462326,0.10023901527084299
1.175,1.046249659324413e-05,0.0005276207322467228,-0.0071731951019741915,-48.157239915149916,52.086471710055996,4.821297303751313,-1659024.0311610338,5098968.194883815,3605376.3517193734,-185.32677525962154,-5260.97257367689,7343.665317655111,0.994965127439567,-3.431947017796161e-05,0.0003252022387011139,0.10022119658457604
1.18,7.616756894596375e-06,0.0005361543843501988,-0.00716131471239404,-48.141517586638145,52.05996318739121,4.822096793902779,-1659024.957036489,5098941.890015705,3605413.0705092875,-185.02340685150074,-5260.974670573637,7343.850648014082,0.9949669241161447,-3.4431474424850855e-05,0.00032651665518039914,0.10020335381715241
1.185,-1.0414493005087138e-05,0.0005353647276685295,-0.007176545797457143,-48.13192231899518,52.02996164479198,4.816013787512375,-1659025.8813954138,5098915.585137171,3605449.7902256446,-184.72016309500603,-5260.9767429003405,7344.035894828122,0.9949687174881705,-3.455268525635911e-05,0.00032785158644922977,0.10018554057045534
1.19,-5.609143161579468e-06,0.0005393401040233583,-0.007155809154095026,-48.12600178769218,52.00366236159212,4.814594178469317,-1659026.8042383564,5098889.280248321,3605486.5108679305,-184.41701391975906,-5260.978797190121,7344.221019592897,0.9949705143527428,-3.471856210405499e-05,0.00032918003591094006,0.10016768942011213
1.195,3.7428842529890027e-06,0.0005292479621465564,-0.007153816095737207,-48.103876863809205,51.977858238739366,4.814053362098683,-1659027.7255657467,5098862.9753492875,3605523.232435598,-184.1139421773521,-5260.980816081497,7344.406047360101,0.9949723057004608,-3.487346443246346e-05,0.000330519578873886,0.10014988981401006
1.2,1.0329997327974458e-05,0.0005435652064923555,-0.007147003438526731,-48.093584151277426,51.955706909351356,4.809276345762319,-1659028.645378154,5098836.670440171,3605559.9549282063,-183.81102079511538,-5260.982830377795,7344.5909959325445,0.9949740962382091,-3.50025757648526e-05,0.0003318363599113631,0.1001320951264337
1.205,3.3327805759870213e-07,0.0005449807859534318,-0.007144075007422047,-48.08137431086915,51.92626605837348,4.797476124724934,-1659029.5636761677,5098810.365520993,3605596.678345342,-183.50818468279428,-5260.984840941756,7344.775858538566,0.9949758847395058,-3.511888045625927e-05,0.0003331904036100704,0.10011431734600591
1.21,-2.930156274797035e-05,0.0005484619268511755,-0.007123288138707058,-48.06306483477569,51.90839640289582,4.80674057311335,-1659030.4804602456,5098784.060591734,3605633.4026864576,-183.20544650074348,-5260.986862591225,7344.960587507736,0.994977672186445,-3.526040323301507e-05,0.0003345454665906945,0.10009654682594313
1.215,-7.192571255472826e-06,0.0005278918681641473,-0.007128102098194985,-48.05920263511762,51.87437754246716,4.802139932983416,-1659031.3957309616,5098757.755652449,3605670.1279511605,-182.90283989356487,-5260.988851386218,7345.145293761883,0.9949794541078021,-3.54764947508582e-05,0.00033590177457726306,0.10007882800451065
1.22,2.5466337420403633e-05,0.000506828299585345,-0.007130292126579837,-48.040705773964895,51.846108637677744,4.795014612387833,-1659032.3094888392,5098731.450703332,3605706.854139047,-182.60031117218807,-5260.990795291202,7345.329860979333,0.994981236935274,-3.563244875079903e-05,0.0003372124466701549,0.10006109715991822
1.225,9.02680366343e-07,0.0005353927913588462,-0.007119528989855875,-48.030262568571295,51.82619738293226,4.786827886877566,-1659033.2217343983,5098705.145744476,3605743.5812494936,-182.2979124431974,-5260.9927474115875,7345.514317510424,0.9949830200135219,-3.5701897972794514e-05,0.0003384788935370637,0.1000433608101238
1.23,1.6611505218396335e-05,0.0005370911789486335,-0.00716720554392613,-48.01548711351296,51.791932986384694,4.787735020243663,-1659034.1324681574,5098678.84077582,3605780.3092820067,-181.99559121517206,-5260.994714638376,7345.698687707512,0.9949848000560777,-3.5839583349245726e-05,0.0003398102506403746,0.10002565121949966
1.235,2.446575293113854e-06,0.0005320080132402232,-0.0071131862456336355,-48.00170755178766,51.7702174851519,4.788954431802251,-1659035.0416906464,5098652.535797441,3605817.0382360816,-181.69340433313423,-5260.996636993732,7345.882942249302,0.9949865917016778,-3.593865881758019e-05,0.0003411497562511096,0.10000782298968104
1.24,1.4041040568887684e-05,0.0005316616586081495,-0.007129142557173645,-47.98913041138064,51.739538222075694,4.7846297914484435,-1659035.9494024704,5098626.230809499,3605853.7681112676,-181.3913252606068,-5260.998540078378,7346.067132227265,0.9949883695256346,-3.607165210025564e-05,0.0003424730808921641,0.09999012911154817
1.245,2.119882439543988e-05,0.0005182406971991257,-0.007112458219384357,-47.98175070073217,51.71870162189012,4.787597357558268,-1659036.8556041773,5098599.925812093,3605890.49890711,-181.08935750273832,-5261.000422633491,7346.251204652078,0.9949901510225024,-3.6175731557597816e-05,0.00034379844076826377,0.09997239550079039
1.25,1.2106570014829776e-05,0.0005369312877405721,-0.00712882087411187,-47.961831782162,51.68609423162675,4.783548401675442,-1659037.7602962446,5098573.620805366,3605927.230623161,-180.78746946198615,-5261.0022679107815,7346.435215644842,0.9949919280445798,-3.6258637538103965e-05,0.000345092206684681,0.09995470335511895
1.2550000000000001,-1.0122274639871697e-06,0.0005357832740529038,-0.00709897465211787,-47.94922363572286,51.66148854807275,4.778677420527617,-1659038.663479242,5098547.315789441,3605963.96325897,-180.48572947872785,-5261.004102140211,7346.61910805254,0.9949937088214752,-3.636884495399141e-05,0.0003464301914407406,0.09993697048197447
1.26,-1.3211031651299797e-05,0.0005408987679139169,-0.007109280886836963,-47.942407104192114,51.63428709224441,4.781428955983158,-1659039.5651537892,5098521.010764356,3606000.6968140053,-180.18408935573373,-5261.005932001838,7346.802906088194,0.9949954818248151,-3.651137248909065e-05,0.0003477620455021022,0.0999193118305144
1.2650000000000001,8.035978377470725e-06,0.0005282062374247397,-0.007136698489168262,-47.92623558229786,51.613295124726456,4.769426807148116,-1659040.4653203564,5098494.705730251,3606037.4312878097,-179.88253750929513,-5261.00770961851,7346.9866157113,0.9949972570814203,-3.6685531202097316e-05,0.0003491035760052966,0.0999016275208521
1.27,-2.5973019647168434e-05,0.0005296697711962039,-0.007107212685807946,-47.91285487046467,51.572331747808384,4.777445323755388,-1659041.3639794148,5098468.400687161,3606074.1666799206,-179.58108584636742,-5261.009526559209,7347.170228583164,0.9949990388814106,-3.6803692029497786e-05,0.00035041883782724624,0.09988387496085457
1.2750000000000001,-1.1794671434046509e-05,0.0005517150971729992,-0.00710894832762418,-47.89933847979919,51.54818884583877,4.773126665640458,-1659042.2611315877,5098442.095635214,3606110.902989785,-179.27978335691674,-5261.01125231567,7347.353717296181,0.9950008129969267,-3.700678977363911e-05,0.0003517292504109289,0.09986619574454123
1.28,-8.912550119658774e-06,0.0005413015886008917,-0.007088916349294056,-47.88272212847812,51.52420029957817,4.769611831910773,-1659043.1567775076,5098415.790574647,3606147.640216868,-178.97858462413808,-5261.012974450767,7347.537115731505,0.9950025872116766,-3.718012431928709e-05,0.00035309804035974456,0.09984851216458986
1.285,-1.7322305972341784e-05,0.0005219684001235952,-0.0070766574747189856,-47.86773977672738,51.49922311317149,4.767105017748668,-1659044.05091773,5098389.485505469,3606184.3783607306,-178.67750432584282,-5261.01469645387,7347.720429331609,0.9950043561202262,-3.7343672441290914e-05,0.0003544416478275485,0.0998308783811023
1.29,1.0633235377778354e-05,0.0005224117085103566,-0.007087424002212662,-47.870074374744945,51.47836607430073,4.764611986586733,-1659044.9435528363,5098363.180427707,3606221.1174209425,-178.37653817115222,-5261.016408716097,7347.903655520949,0.9950061216718565,-3.7523303925053926e-05,0.0003557350659279245,0.09981327506947842
1.295,-3.2746486794758903e-06,0.00052612087013635,-0.007069754658325562,-47.84222472456857,51.4432533776863,4.757935078120536,-1659045.8346831843,5098336.875341471,3606257.8573970734,-178.0756010529098,-5261.018085245346,7348.086796813824,0.9950078895987183,-3.763351575536574e-05,0.000357036561477922,0.09979564491959031
1.3,-1.9776438318751332e-05,0.0005320241388207035,-0.007102994498489377,-47.83263844612906,51.411223214942,4.757683141303615,-1659046.7243093085,5098310.57024683,3606294.5982885864,-177.77484861322222,-5261.019771463444,7348.269808411715,0.9950096527993402,-3.777923333370139e-05,0.0003583438153249506,0.09977805870318474
1.305,-8.591731009101682e-06,0.0005205340010857718,-0.007081661373416705,-47.818418178342036,51.39125814237006,4.762113967428499,-1659047.612431934,5098284.265143872,3606331.340094872,-177.47420158969769,-5261.021411770617,7348.452705772795,0.9950114239705997,-3.796750182002985e-05,0.00035966163415141183,0.09976038978460967
1.31,6.1338615855641686e-06,0.0005186529132040524,-0.00708139157496942,-47.81689406197345,51.34925774391177,4.757892424838997,-1659048.499051601,5098257.96003278,3606368.0828155237,-177.17366519893284,-5261.023024975204,7348.635554841418,0.9950131895182117,-3.812506318216838e-05,0.0003609536623202237,0.09974277389229055
1.315,-1.0611861473491559e-05,0.0005131644177029035,-0.007073118498928676,-47.79409686870737,51.32562636024292,4.75814493002584,-1659049.384168791,5098231.654913796,3606404.8264499893,-176.87321078464473,-5261.024568510146,7348.818231445441,0.9950149546881072,-3.824552482939001e-05,0.0003622446830615086,0.09972515862656489
1.32,-1.61861177399109e-05,0.0005271876848825139,-0.007081272668515916,-47.779794913442316,51.30461180082637,4.747514833585727,-1659050.2677840847,5098205.349787098,3606441.5709976684,-176.5729066735695,-5261.026110467264,7349.0008401863,0.995016717485645,-3.8406266231842884e-05,0.0003635178767173361,0.09970756392473049
1.325,1.054706040536891e-05,0.0005106879072771625,-0.00708151414666906,-47.766317814160466,51.260748840684016,4.74616492056781,-1659051.1498980913,5098179.044652617,3606478.3164581545,-176.27269605653402,-5261.027682386162,7349.183354259093,0.9950184819893181,-3.858437679262686e-05,0.00036482456345023274,0.09968994891139638
1.33,-1.7654051436726716e-06,0.0005102794401282579,-0.007052076168041779,-47.73865211512893,51.24262754893621,4.7413334866519685,-1659052.0305114016,5098152.739510427,3606515.0628308053,-175.97262805744597,-5261.029193459993,7349.365706121838,0.9950202462572728,-3.869187539069369e-05,0.0003660968686586261,0.09967233324317143
1.335,4.027183767119252e-07,0.0005179441805152424,-0.007063996072148023,-47.73433860716751,51.21473147754363,4.73475067922974,-1659052.9096247614,5098126.43436058,3606551.810115076,-175.67271580267735,-5261.03074560027,7349.548002257227,0.9950220028768398,-3.882987313281106e-05,0.0003673650924865519,0.09965479078344416
1.34,1.4318635846364868e-05,0.000514512844391674,-0.007097750455441663,-47.714856833835356,51.1825770958874,4.735883407710487,-1659053.787238725,5098100.129203027,3606588.558310529,-175.3728696935321,-5261.0322754557665,7349.730178852972,0.9950237621478234,-3.896439805389559e-05,0.0003686529216654381,0.09963721863837242
1.345,7.196824271689387e-06,0.0005352998546391751,-0.007064589454438388,-47.70380209286212,51.151029560850816,4.73611289339587,-1659054.6633538378,5098073.824037904,3606625.3074166076,-175.07317534872908,-5261.033773838983,7349.912252638437,0.9950255295178396,-3.9063482678483827e-05,0.00036993567814596804,0.0996195624833867
1.35,-7.390831481551894e-07,0.0005376277415419473,-0.007050475550076264,-47.68704861584228,51.13065460504264,4.724646435941348,-1659055.5379707578,5098047.518865398,3606662.057432781,-174.77359271682275,-5261.035228493005,7350.094216683666,0.9950272882956733,-3.918542956516156e-05,0.0003712683730836971,0.09960198879167191
1.355,-5.412341851180637e-06,0.0005174819809158411,-0.007049777888091505,-47.67805090753546,51.104257896585544,4.725036531153094,-1659056.4110900206,5098021.213685519,3606698.8083585436,-174.47411233821177,-5261.036722805286,7350.276088309015,0.9950290432445896,-3.932768410596545e-05,0.0003726048839849056,0.09958445018520916
1.36,1.7175297252913775e-05,0.0005219038460108885,-0.007039268253685021,-47.646799323997065,51.07368698217349,4.71909154745128,-1659057.2827121147,5097994.908498261,3606735.560193439,-174.1747253842302,-5261.038180330826,7350.457869824847,0.9950307977272826,-3.947654754370844e-05,0.0003738901173362616,0.09956691328945579
1.365,-1.6044354559248376e-05,0.0005159427615145561,-0.0070418054725575625,-47.637307571422554,51.0388818332469,4.722285097795857,-1659058.1528377559,5097968.603303656,3606772.3129369756,-173.87553106343003,-5261.0396619436515,7350.639544764077,0.9950325492817442,-3.9570313332775926e-05,0.00037519197379187334,0.09954940248462785
1.37,-2.9367771529038546e-06,0.0005375791402300673,-0.007075819663254943,-47.635132946561114,51.01491210750412,4.719930333501844,-1659059.021467711,5097942.298101808,3606809.0665885964,-173.57645100665115,-5261.041077360664,7350.821103649654,0.9950343011600128,-3.974523452045049e-05,0.0003764707337056415,0.09953188536900172
1.375,-6.018395988810588e-06,0.0005059850280979231,-0.007057815396609373,-47.61846453341377,50.982094249111285,4.713425213824835,-1659059.8886024032,5097915.9928929685,3606845.821147778,-173.27742583713135,-5261.042458451799,7351.00256897098,0.9950360611713611,-3.989296526015091e-05,0.00037780657402392394,0.09951428359450408
1.3800000000000001,-2.1055264550306796e-05,0.0005261500516868872,-0.007011206439179071,-47.599941441653186,50.951592981385346,4.713697272860413,-1659060.7542422956,5097889.687677245,3606882.576613963,-172.97853114453372,-5261.043830843643,7351.183905098578,0.9950378164207685,-4.0040484623087147e-05,0.0003790630561542965,0.09949672658207404
1.385,-1.1644644546203145e-05,0.0005205517122066354,-0.007029694883963002,-47.593221445482655,50.92767423718016,4.700758603390563,-1659061.618388073,5097863.382454725,3606919.3329865807,-172.67977978048268,-5261.045176954477,7351.365141864516,0.9950395597465603,-4.023038132098838e-05,0.00038036596493701193,0.09947928549512511
1.3900000000000001,5.422023413343203e-06,0.0005277816036238289,-0.007027119669050706,-47.57423937880988,50.894021921850005,4.707916786856094,-1659062.4810402475,5097837.077225434,3606956.0902650836,-172.3810899825473,-5261.0465398044225,7351.546259350709,0.9950413073684455,-4.0395493442377794e-05,0.0003816572857236683,0.0994617983771413
1.395,1.1761273754203162e-05,0.0005320146627505492,-0.007048713556231351,-47.56586760822746,50.856967116030745,4.699243697106011,-1659063.3421993724,5097810.771989477,3606992.848448943,-172.0825600223364,-5261.047842875634,7351.727284265761,0.9950430540358982,-4.0519945740102235e-05,0.00038297083545714314,0.09944431761737758
1.4000000000000001,-8.694811275273279e-06,0.0005185790016696399,-0.007002321365917906,-47.54487622998575,50.827830848396886,4.697805570311431,-1659064.2018660924,5097784.4667470725,3607029.607537528,-171.78412801736133,-5261.049119006383,7351.908149834124,0.9950448057586239,-4.0629701516421146e-05,0.00038429648908019215,0.09942678310303678
1.405,-3.4371478755027524e-06,0.0005228972909593435,-0.007043032599714648,-47.52511971955674,50.81068017523978,4.698563283680233,-1659065.060041027,5097758.161498316,3607066.3675301997,-171.48584576545522,-5261.050383702154,7352.088918814549,0.9950465456519358,-4.078695985072307e-05,0.00038558363987753377,0.09940936398463993
1.41,-1.5595402890987474e-05,0.0005354705262200685,-0.007015184828939332,-47.50610582622051,50.77453256006473,4.693078482055152,-1659065.916724864,5097731.856243223,3607103.128426609,-171.18768906408295,-5261.05165334081,7352.269644953982,0.9950482953509159,-4.093225156283121e-05,0.00038688283530368425,0.09939184355599276
1.415,7.996009391474636e-06,0.0005384175247425366,-0.007026623830376507,-47.48863282340652,50.743917654516714,4.693482772295593,-1659066.771918288,5097705.5509818215,3607139.890226304,-170.88968054905558,-5261.052907321776,7352.450233044206,0.9950500378078708,-4.111088564746756e-05,0.00038821028982171204,0.09937439238164401
1.42,-2.6522239669618047e-06,0.0005007980204792848,-0.006996058891878504,-47.47756799812738,50.71431026234942,4.686793815888717,-1659067.6256220168,5097679.245714223,3607176.6529286886,-170.59181094955485,-5261.054131984147,7352.6307207364935,0.9950517827978986,-4.1231576372618875e-05,0.00038955093502687874,0.0993569126973546
1.425,2.1002902970293995e-06,0.0005382530790942309,-0.0070451765017878355,-47.46085320040513,50.684309753712085,4.690573253046707,-1659068.4778366457,5097652.940440532,3607213.416533208,-170.29404059508934,-5261.055344481699,7352.811087071956,0.9950535199239651,-4.136938178294514e-05,0.00039079535493637216,0.0993395090308596
1.43,2.1525922007159356e-05,0.0005305401849550336,-0.006995714188474323,-47.445798614640736,50.64388189431116,4.666487306382075,-1659069.3285627696,5097626.635160885,3607250.181039336,-169.99640895156546,-5261.056514208345,7352.991364273763,0.9950552689040104,-4.150471457051036e-05,0.0003921341243957659,0.09932198313845084
1.435,-3.5950566634039446e-06,0.0005225092006267524,-0.0070005661890265814,-47.42765567771246,50.616529423519005,4.682067839180717,-1659070.1778010204,5097600.32987529,3607286.946446324,-169.69889145079196,-5261.057723591739,7353.171430764835,0.9950570053035953,-4.1589759762751184e-05,0.00039345853545674737,0.09930458024136427
1.44,-1.6675352515262825e-05,0.0005070587423983634,-0.007010369632807643,-47.41171092262328,50.59394607688139,4.679483348934504,-1659071.025552073,5097574.02458385,3607323.7127535334,-169.40152950456678,-5261.058852645772,7353.351453073186,0.9950587426067325,-4.17353079455325e-05,0.0003947567311034879,0.09928716526921194
1.445,9.582810472758551e-06,0.0005266465929052796,-0.007003060737843294,-47.40391632253956,50.561475510830626,4.678873435540647,-1659071.8718166002,5097547.71928677,3607360.479960661,-169.10428137552603,-5261.059979469774,7353.531397959099,0.9950604820502807,-4.1909569866739865e-05,0.00039601324355803487,0.09926972589345565
1.45,-4.055072306829133e-06,0.0004979962424356746,-0.00700079633515312,-47.3816255190966,50.52892326553686,4.665302557236078,-1659072.7165951303,5097521.413984179,3607397.248067216,-168.80713066079886,-5261.061056908004,7353.711224098726,0.9950622193563221,-4.2023364589549314e-05,0.0003973250009977117,0.09925230464100633
1.455,5.583552423192143e-06,0.0005047744197155285,-0.007013307952112548,-47.36576566155936,50.49810346325207,4.652332914218431,-1659073.5598882718,5097495.1086761225,3607434.0170725435,-168.5101259478782,-5261.062165405089,7353.890906766271,0.9950639558209818,-4.21639743716341e-05,0.0003985621023713371,0.09923488900759178
1.46,-2.697487888793588e-05,0.0005331252921921238,-0.006991169165142406,-47.35389121103959,50.46485116592609,4.663059811827046,-1659074.4016966766,5097468.803362476,3607470.7869759337,-168.2132360141318,-5261.063293470364,7354.07044939352,0.9950656950769594,-4.228230056639881e-05,0.00039981845532256196,0.09921744220860321
1.465,-6.4337151696136e-06,0.0005322857547467822,-0.006980704584563449,-47.34084396330949,50.43595310712067,4.661954755257995,-1659075.2420209611,5097442.498043407,3607507.55777682,-167.91647775580418,-5261.064333973659,7354.249905131901,0.9950674285031598,-4.248863131722803e-05,0.0004011372620316585,0.09920005048245781
1.47,-2.8008106710353084e-07,0.0005075520287007477,-0.006983281974845153,-47.328143699162084,50.398290027387446,4.661305151328256,-1659076.080861739,5097416.192719207,3607544.329474732,-167.6198334398932,-5261.065345938055,7354.429259510561,0.9950691590318832,-4.2643643747897265e-05,0.00040245907544952963,0.099182684737776
1.475,-7.857210803368644e-08,0.0005203884903196079,-0.006986765547167558,-47.29737884478718,50.37531141404368,4.648572429550537,-1659076.918219617,5097389.887390076,3607581.102069075,-167.32331773718667,-5261.066306646416,7354.6084778964,0.9950708899203732,-4.277721763658086e-05,0.0004037208848842667,0.09916531254744926
1.48,4.8350748389518025e-06,0.0005194562969960729,-0.006967080131064577,-47.2847596391514,50.34159527513827,4.650315160785337,-1659077.7540953364,5097363.582055973,3607617.8755592722,-167.02697000488013,-5261.067334427574,7354.787600890469,0.9950726213544717,-4.2913476068199924e-05,0.00040501467675264436,0.09914793165913958
1.485,5.109047201063311e-06,0.0005077149709686998,-0.006984719515769113,-47.271694615832516,50.316892791825595,4.642385753374753,-1659078.5884896277,5097337.276716861,3607654.649944801,-166.73074653343704,-5261.068310441288,7354.9666105434635,0.9950743476062036,-4.303725990301722e-05,0.00040630736955373653,0.0991305997066694
1.49,-1.5496277440066745e-05,0.0005115724751945037,-0.006982933814167186,-47.25495929601148,50.271150144022506,4.648840414055559,-1659079.421403046,5097310.971372848,3607691.425225119,-166.43462078783782,-5261.069294430711,7355.145516771688,0.9950760779371105,-4.315747027330493e-05,0.00040757091949947613,0.09911322384362259
1.495,-2.1030539953537293e-06,0.0005313505276805797,-0.006959686073682301,-47.23372510783226,50.24051742492485,4.634993013871126,-1659080.2528362612,5097284.666024141,3607728.2013996043,-166.13866528572254,-5261.070188796284,7355.324277300552,0.9950778075144453,-4.3329894299132535e-05,0.00040883896013803225,0.09909585241305295
1.5,1.3875951351471776e-05,0.0005239904805033647,-0.006964624898003852,-47.21278803221101,50.21722608609805,4.639715570592081,-1659081.0827900423,5097258.360670875,3607764.9784675483,-165.84284716050342,-5261.071117522639,7355.502900403011,0.9950795310096862,-4.347387610914605e-05,0.0004101595229550094,0.09907853876965973
1.5050000000000001,1.01562870426571e-05,0.0005233638491662958,-0.006971937950296913,-47.208715058824644,50.18272641926124,4.633140105436798,-1659081.9112650997,5097232.055313022,3607801.7564284685,-165.5471758207958,-5261.072023664305,7355.681467590748,0.9950812554343501,-4.357628896051345e-05,0.0004114657334707604,0.09906121279418605
1.51,4.849913770153819e-07,0.00047747025341570814,-0.006928080881998769,-47.18695658057666,50.15512909955892,4.623264329097743,-1659082.7382619919,5097205.749950734,3607838.5352818575,-165.2515810272069,-5261.0728914848905,7355.859887978541,0.9950829813666583,-4.36878075546814e-05,0.0004127694630053566,0.09904386859967074
1.5150000000000001,-9.812514114230216e-06,0.0004940396791316871,-0.006941517475512022,-47.17027931960085,50.1247705289904,4.625000621015373,-1659083.5637812587,5097179.44458404,3607875.315027064,-164.95612563575997,-5261.073786005484,7356.038194798328,0.9950846961838635,-4.381197653459965e-05,0.0004139566326581907,0.09902663349364739
1.52,-7.10437316979918e-06,0.0005219476309046555,-0.006935612064959202,-47.15685722687606,50.09467374327267,4.6368126074850045,-1659084.3878235891,5097153.139212963,3607912.095663564,-164.66080661363978,-5261.07464473062,7356.216405068307,0.9950864140086823,-4.3965878668107224e-05,0.0004151824713509113,0.09900936494018389
1.5250000000000001,5.529775866735273e-06,0.0005040449330247949,-0.006934723185212834,-47.1316723190891,50.05308687257075,4.620929044232909,-1659085.2103896602,5097126.833837797,3607948.87719094,-164.36562182506808,-5261.075421915285,7356.394545393284,0.9950881300420779,-4.41199454445707e-05,0.0004164784079545389,0.09899211104187489
1.53,-8.719835134369056e-07,0.0005258649018339829,-0.0069602347509688306,-47.112716974684446,50.02283005947601,4.618478856095627,-1659086.0314802374,5097100.528458682,3607985.659608557,-164.07060901272405,-5261.076224218605,7356.5725012094845,0.9950898455747627,-4.423815048821112e-05,0.0004177329343276529,0.09897485931374987
1.5350000000000001,1.013582810632159e-05,0.0004923037429586519,-0.0069398613596617685,-47.10170828294725,49.99771563436526,4.611193537507853,-1659086.851096103,5097074.223075591,3608022.4429156873,-163.77573723490286,-5261.077012066865,7356.750351043083,0.9950915670946199,-4.437770704622494e-05,0.0004190401557929883,0.09895754409412506
1.54,4.365952609643146e-06,0.0005017483324425117,-0.006933656556225962,-47.083377491938165,49.96392806366987,4.611148404413577,-1659087.6692378346,5097047.917688561,3608059.2271118043,-163.4809554377343,-5261.077800136495,7356.928095834696,0.9950932833085775,-4.4481554971664533e-05,0.00042026661159101533,0.09894027952013121
1.545,2.888015298345546e-06,0.0005174749206337136,-0.006932449777655717,-47.06513218074559,49.936905166406255,4.598913380018542,-1659088.4859060263,5097021.612297673,3608096.01219636,-163.18632124397575,-5261.07855486575,7357.105726499511,0.9950949976764052,-4.460208640116547e-05,0.0004215151363881604,0.09892303035713662
1.55,1.2425698681174379e-05,0.0005111468700746135,-0.006927478463061617,-47.042508982454876,49.905142097898775,4.604191161760412,-1659089.3011013458,5096995.306902937,3608132.7981687672,-162.89180653494353,-5261.079339677394,7357.283236356873,0.9950967114284879,-4.473018256997378e-05,0.00042280241931055477,0.09890578416621511
1.555,1.3390322199244224e-05,0.0005040084422689158,-0.006901941510426285,-47.02859219529568,49.87352905342522,4.606897814420837,-1659090.114824517,5096969.001504378,3608169.585028505,-162.59746192274744,-5261.080083562587,7357.460658682953,0.9950984236587699,-4.483298147514472e-05,0.00042407631843564716,0.09888855030341638
1.56,2.4153748270348233e-06,0.0004963139678378874,-0.006912965397617687,-47.01399986428989,49.831582141692536,4.599210880407402,-1659090.9270762836,5096942.6961022215,3608206.372775101,-162.30324472552118,-5261.0807792067,7357.637979801901,0.9951001292844753,-4.4931588782503154e-05,0.00042533270017548514,0.09887137994013782
1.565,1.3495592153443054e-05,0.0005321459082432622,-0.006922912220898079,-46.99021940776461,49.80162988747963,4.593206940354634,-1659091.737857303,5096916.390696661,3608243.1614078735,-162.00916301925443,-5261.081445117257,7357.815129157446,0.9951018373436958,-4.50556088190511e-05,0.00042656722584778886,0.098854182135076
1.57,9.991863705097709e-06,0.0005147639465439445,-0.006911660956707333,-46.97735569713826,49.76671633513937,4.5966546713492065,-1659092.5471683075,5096890.085287745,3608279.9509261157,-161.71523883940012,-5261.0821210668655,7357.9921676697095,0.9951035475248713,-4.516092993088126e-05,0.0004278936296602761,0.09883695953917455
1.575,1.1027957898810534e-05,0.0005231764469356648,-0.006899975663608997,-46.95143892744886,49.72719092388258,4.586484746380432,-1659093.3550100152,5096863.779875603,3608316.7413292667,-161.42144416154798,-5261.08273605861,7358.169092766805,0.9951052546448467,-4.527066047417119e-05,0.0004291759267403208,0.09881976490968876
1.58,1.1244460053520252e-05,0.0004794099651838731,-0.006902580753714419,-46.94326916033165,49.70139227013569,4.590488570619938,-1659094.1613831962,5096837.474460362,3608353.532616644,-161.1278283108534,-5261.083359776145,7358.345858197868,0.9951069585707868,-4.537987921261636e-05,0.0004304794092890442,0.09880259931875945
1.585,1.6369344577052175e-06,0.0005257797159295872,-0.006898440598122745,-46.924398621641075,49.679731913149354,4.573302965140092,-1659094.9662885303,5096811.169042134,3608390.324787652,-160.83430531095703,-5261.083931730187,7358.52254495136,0.9951086628895441,-4.547775152867178e-05,0.00043167406406448766,0.09878542722213786
1.59,1.1776873267977015e-05,0.0005110868016016522,-0.006910337218922462,-46.911647938453285,49.63582869589929,4.576460921509463,-1659095.769726515,5096784.8636208875,3608427.117841813,-160.5408886025278,-5261.084566828721,7358.699119250421,0.9951103658369743,-4.561097233209075e-05,0.00043298170382434216,0.09876826540081879
1.595,1.1894993867089174e-05,0.0005157922236392377,-0.0068883985730092126,-46.88481452956377,49.60064375210447,4.572864749148078,-1659096.5716977778,5096758.558196668,3608463.9117784672,-160.24761647843707,-5261.085121138086,7358.875542630115,0.9951120714408297,-4.571535211970158e-05,0.0004342552931799645,0.09875107394447923
1.6,-8.670019023495408e-06,0.0005011673294056487,-0.006879639686171553,-46.86338518525634,49.563224701987735,4.574257816329722,-1659097.372203139,5096732.252769689,3608500.7065969314,-159.95452797532167,-5261.08567010648,7359.051843077159,0.9951137713257331,-4.582057588180962e-05,0.00043554062013002534,0.09873393703646006
1.605,1.4507396341349667e-05,0.0005094582323418358,-0.006874846122368468,-46.84965705255578,49.53896475691883,4.567980114041458,-1659098.1712434818,5096705.947340069,3608537.502296592,-159.66160918979827,-5261.08617786182,7359.228021043953,0.9951154687658589,-4.597334147852072e-05,0.0004367844882078665,0.09871682191332744
1.61,9.744523502731818e-07,0.0005077001394408668,-0.00689592015454938,-46.84060733598727,49.503688737390966,4.574060128367553,-1659098.9688194853,5096679.6419079015,3608574.2988769,-159.36879220402105,-5261.086689245584,7359.404102267437,0.9951171647208337,-4.607048744476084e-05,0.0004380547027232022,0.09869971865996821
1.615,-3.231407122416751e-05,0.00048391088780184245,-0.006879332844590421,-46.818250699092246,49.47028600264585,4.561119663282017,-1659099.7649316946,5096653.336473377,3608611.0963373375,-159.0760915071166,-5261.087120593913,7359.580072745008,0.9951188655797113,-4.6200889830175416e-05,0.00043931720166533476,0.09868256296439924
1.62,-1.6613271593414979e-06,0.0005056246525100108,-0.006851725740685413,-46.788434543856745,49.43585591263055,4.561563272960649,-1659100.559580771,5096627.03103663,3608647.8946772637,-158.78353909552754,-5261.087578359906,7359.755897706634,0.9951205620720935,-4.6408220117826025e-05,0.0004405123070675896,0.09866544854459017
1.625,-5.389871893447122e-06,0.0005130464190754995,-0.00687205557523276,-46.767473401269186,49.39475790256419,4.559368015125486,-1659101.3527675874,5096600.725597627,3608684.693896049,-158.49118746289935,-5261.088022688863,7359.931616397674,0.9951222514397638,-4.654461804463052e-05,0.0004417689959935954,0.09864840274027842
1.6300000000000001,-1.4676208182583554e-05,0.000502549199636207,-0.006871176548801582,-46.7534386609159,49.37523439114484,4.5493959697261435,-1659102.1444930695,5096574.420156495,3608721.493993058,-158.1990053103048,-5261.088430458362,7360.107187141995,0.9951239455181043,-4.6692144668514526e-05,0.0004430432267984437,0.09863130633335346
1.635,8.655321426500146e-06,0.000508225497616574,-0.006844508435505327,-46.73591424338485,49.32801083133189,4.561805403781726,-1659102.9347578655,5096548.114713249,3608758.2949677017,-157.90691312052272,-5261.088867898928,7360.282670278939,0.9951256390949537,-4.6860184557773e-05,0.0004442890526796769,0.09861421209552301
1.6400000000000001,1.7717587604511228e-06,0.0005142814734044842,-0.00686238292850886,-46.71686517479783,49.29829738948935,4.545364651514252,-1659103.72356266,5096521.809268103,3608795.0968194236,-157.61500463599353,-5261.089190124706,7360.45801862613,0.9951273257994987,-4.697154971315968e-05,0.0004455547551789496,0.09859718414727688
1.645,1.6297451781527272e-05,0.0004857062065936574,-0.006853500578913194,-46.69176041921074,49.264727677721496,4.536373557911664,-1659104.5109082176,5096495.503821243,3608831.89954753,-157.32321844068625,-5261.089554211846,7360.6332238846,0.9951290166086697,-4.710155257358092e-05,0.0004468338248654404,0.09858011170839065
1.6500000000000001,-9.543726032012678e-06,0.0004916922727940644,-0.006858151419074228,-46.67879707066279,49.22482584179619,4.539094620687786,-1659105.2967952592,5096469.198372521,3608868.70315133,-157.03159818069656,-5261.089934288114,7360.808296137504,0.9951307049683432,-4.718836576870811e-05,0.00044804538513403306,0.09856306132522091
1.655,1.2009629945368953e-06,0.00048276975174146766,-0.006862624493719494,-46.66650113486724,49.20004474784173,4.529051613432216,-1659106.0812245437,5096442.892922074,3608905.5076301517,-156.74011561535963,-5261.090244831756,7360.983232530358,0.995132394170445,-4.734094754561405e-05,0.0004492654695533811,0.09854599937070387
1.6600000000000001,7.634011050545809e-06,0.0004913592074498261,-0.0068518740775488675,-46.64415011723791,49.16082740725024,4.529181127003358,-1659106.8641966437,5096416.587470037,3608942.312983379,-156.44872441755868,-5261.090569641075,7361.158058273142,0.995134084191648,-4.746460516533461e-05,0.0004504660027014624,0.09852892624778689
1.665,-3.7874917286333873e-06,0.0005007745028558983,-0.006851028330634981,-46.624467160109084,49.12658458497533,4.532247359003075,-1659107.6457122262,5096390.282016474,3608979.1192104025,-156.1575085199862,-5261.090855872724,7361.332751285029,0.9951357712619412,-4.75743620754715e-05,0.0004516894907457916,0.09851187983276738
1.67,5.523214450270657e-06,0.0005134181992447543,-0.006829007644106041,-46.59960182586909,49.09047423953122,4.528546309182447,-1659108.4257721244,5096363.976561589,3609015.9263106254,-155.86645084689584,-5261.091097942214,7361.507337825931,0.99513745781846,-4.7714851677566244e-05,0.0004529335896163621,0.09849483550455414
1.675,-2.18759869387852e-05,0.0005071366609517277,-0.006841117504148041,-46.59296525933124,49.05984976112559,4.525100158063966,-1659109.2043771748,5096337.671105522,3609052.734283459,-155.57556929834567,-5261.091328778552,7361.681795567245,0.9951391386468726,-4.783526609665968e-05,0.0004542114391614359,0.09847784591935536
1.68,-3.115757702586311e-06,0.0005027382782982626,-0.006844211722177637,-46.566050819385964,49.02461727194734,4.509168985590662,-1659109.9815280295,5096311.3656483935,3609089.5431282795,-155.2847725328785,-5261.091522784051,7361.85613273654,0.9951408221683339,-4.802231281608153e-05,0.00045546691407759835,0.09846082620961635
1.685,-1.0300782741001931e-05,0.0005004455704433436,-0.006849808326925433,-46.53414647815172,48.986089301333365,4.526267584175836,-1659110.7572253202,5096285.060190187,3609126.352844392,-154.9941437929129,-5261.091759938634,7362.030312095467,0.9951425061659005,-4.8161607698810525e-05,0.0004567160638321224,0.09844379875211665
1.69,-1.5059062790555312e-05,0.0005049341852969684,-0.006815482134034995,-46.52455792020641,48.963980799751134,4.51560030015414,-1659111.5314700643,5096258.754731005,3609163.1634312137,-154.70375380308744,-5261.091912652727,7362.204416665426,0.9951441912494459,-4.831822000988575e-05,0.0004579577405477529,0.09842675735054876
1.695,-1.9728606680731624e-05,0.000531728982234884,-0.006824800232527053,-46.508510965368885,48.919605042307346,4.510318412123659,-1659112.3042630423,5096232.449271017,3609199.974888299,-154.41343740994827,-5261.09208266956,7362.378417460702,0.9951458675887985,-4.8487735443315404e-05,0.0004592094174677924,0.09840980132379021
1.7,1.283529809287472e-05,0.0004965739694495369,-0.0068095698270899925,-46.48342968613656,48.884892910507574,4.507225578708191,-1659113.075604811,5096206.143810283,3609236.787214953,-154.1232701271197,-5261.092210575703,7362.552244212565,0.9951475458983271,-4.867547092983195e-05,0.0004605266061304223,0.09839282208820163
1.705,-9.153893327888256e-06,0.00048822107962467155,-0.006817737939208916,-46.47955598965802,48.849324122814735,4.503968135820233,-1659113.8454961819,5096179.838348936,3609273.6004104377,-153.83327817440963,-5261.09232842947,7362.725949653732,0.9951492202151853,-4.877352664013056e-05,0.00046176434558635373,0.09837588068190874
1.71,6.628781845911974e-06,0.0005129642590234029,-0.006816873398304061,-46.446550340829745,48.80985970613069,4.497868212589334,-1659114.613937796,5096153.532887136,3609310.414474094,-153.5433675601415,-5261.092391625633,7362.899512653162,0.9951508962576046,-4.892424377494468e-05,0.0004629758949669854,0.09835891895209876
1.715,-1.6304413119909937e-06,0.0005049778834485339,-0.006806819218776358,-46.43164691935013,48.78474341205559,4.490071480811188,-1659115.3809303963,5096127.2274250025,3609347.2294052076,-153.25367243099495,-5261.092461829158,7363.072932977112,0.995152571770103,-4.904177881742819e-05,0.0004642528832281954,0.09834195932314187
1.72,-6.144046181580593e-06,0.0004969196445688375,-0.006809777857540485,-46.414749575505915,48.74390448098542,4.490500444161098,-1659116.1464747866,5096100.921962493,3609384.045203164,-152.96408376823405,-5261.092541837466,7363.246249578112,0.9951542445287751,-4.9177886654745664e-05,0.00046550797286075836,0.09832502468967735
1.725,1.1212527667015426e-05,0.0005039934256573186,-0.006804955947476141,-46.39871611706391,48.71520760981019,4.482902725413269,-1659116.9105716187,5096074.616499721,3609420.861867346,-152.67464903618733,-5261.092567057272,7363.419423133138,0.9951559177336777,-4.932324643718809e-05,0.0004667419045166443,0.09830808267306193
1.73,-1.348513910004218e-06,0.0004856842809136754,-0.006789647123461753,-46.369726796589035,48.67065062330558,4.492378624938213,-1659117.6732215723,5096048.311036815,3609457.6793971034,-152.38533243942672,-5261.092595354415,7363.592479841195,0.9951575894576027,-4.9427157860494085e-05,0.0004679977011477189,0.09829115260307597
1.735,7.982759267450801e-06,0.0004990169043633174,-0.006814836979729793,-46.35829724753738,48.641636235831406,4.4843138618075065,-1659118.4344255093,5096022.0055739535,3609494.4977918365,-152.09624232469494,-5261.092549270875,7363.765413455526,0.9951592571506958,-4.955780283050692e-05,0.00046920486172560746,0.09827426060824562
1.74,-2.1678674151861954e-05,0.0004887402789695086,-0.006758257876841937,-46.33695961505728,48.603408206500895,4.469048450921564,-1659119.194184239,5095995.700111335,3609531.3170509296,-151.80724959145752,-5261.092497954941,7363.9382238624985,0.9951609307287919,-4.9668537711192e-05,0.0004704474818152579,0.09825730590245206
1.745,1.104491784280049e-05,0.00047392706729598906,-0.006774907028222937,-46.30810772146608,48.56118339860689,4.47850199493882,-1659119.9524983778,5095969.394648919,3609568.1371736433,-151.51840589907457,-5261.092468738413,7364.110861512679,0.9951625901290272,-4.985047639916537e-05,0.00047165725542270073,0.0982404919676671
1.75,2.0396611560653714e-05,0.0004970211600561577,-0.006780456849158241,-46.28839855703402,48.529885526575605,4.471371759644234,-1659120.7093688522,5095943.089186821,3609604.95815926,-151.229783820666,-5261.092370297616,7364.283385264704,0.9951642533536339,-4.994738332509875e-05,0.0004728382098887665,0.09822363654635523
1.7550000000000001,-9.874613086160096e-06,0.0004959242736251638,-0.0067385524448928796,-46.275493522805206,48.4955698906698,4.460823440240557,-1659121.4647965655,5095916.783725209,3609641.7800071877,-150.9413015518825,-5261.092274520046,7364.455785790557,0.9951659176277318,-5.0026701583240646e-05,0.0004740789159577377,0.098206767275301
1.76,1.9891628175041775e-05,0.0005078554582846848,-0.0067756785046527495,-46.24188304792715,48.46064480141497,4.4544644185727105,-1659122.2187821432,5095890.478264088,3609678.6027167416,-150.6529294969305,-5261.092174012578,7364.6280357875385,0.9951675713253785,-5.018101308549232e-05,0.0004753094660736788,0.0981900022666522
1.7650000000000001,3.5276242301863916e-07,0.0005117476433540937,-0.006769992995382981,-46.22582778580924,48.4271227183743,4.450820236638154,-1659122.9713263847,5095864.17280342,3609715.4262872343,-150.36476711450803,-5261.092093057235,7364.800161140679,0.9951692338405437,-5.026424150183558e-05,0.00047657700208406534,0.09817314482633428
1.77,1.906725844320073e-05,0.0005084752306038841,-0.006762058697758979,-46.21438452426627,48.37951033849433,4.453840411388819,-1659123.7224301437,5095837.867343216,3609752.2507180395,-150.07673654957136,-5261.091988391128,7364.972161030094,0.9951708946662771,-5.039702959499207e-05,0.00047784942664883017,0.09815630152561103
1.7750000000000001,-6.791870642496203e-06,0.0004887158792003281,-0.006781640160077627,-46.19598944927363,48.34354792368265,4.46076081419699,-1659124.4720941118,5095811.561883765,3609789.0760084246,-149.78885065518134,-5261.091791863092,7365.1439930686865,0.9951725532649168,-5.0482444870920764e-05,0.00047911830291523413,0.09813947791465426
1.78,5.4966600074617944e-06,0.0004755571539343995,-0.006764583438106636,-46.16615566669501,48.31561281770675,4.440441918775695,-1659125.2203190508,5095785.256425464,3609825.9021577104,-149.50112497752718,-5261.091529110448,7365.315721129095,0.9951742164014696,-5.0627371394719945e-05,0.0004803316721582326,0.09812260559154991
1.7850000000000001,7.879634596104835e-06,0.0004892192460463431,-0.006758263952291437,-46.138248520084055,48.27984559718503,4.441961611100478,-1659125.9671057675,5095758.950968267,3609862.7291652905,-149.21356164039145,-5261.0913493504795,7365.48731087881,0.995175875084472,-5.073847642851008e-05,0.0004815153198180024,0.0981057756631031
1.79,1.6075276105831853e-05,0.0004956755194306605,-0.006750484175513409,-46.122681062314825,48.24328955785855,4.439001252753828,-1659126.7124551565,5095732.645512032,3609899.5570305423,-148.92619394598472,-5261.091144515439,7365.658789969409,0.9951775319155853,-5.084699596866577e-05,0.0004827335430612067,0.09808896142437978
1.795,-1.8090208445465964e-05,0.0005105093382465433,-0.0067551394503993145,-46.10212146886467,48.197953469387514,4.43406282909687,-1659127.4563680466,5095706.340056908,3609936.3857528493,-148.63896207885145,-5261.090905257185,7365.830132704754,0.9951791865469041,-5.093669903246173e-05,0.0004839698397554212,0.09807216650247522
1.8,-1.310609076205831e-05,0.00047887463127527734,-0.0067303521620538185,-46.075995909809976,48.165746656364504,4.429155410474211,-1659128.1988452056,5095680.034603071,3609973.2153314357,-148.3519015118749,-5261.090629265979,7366.001301877239,0.9951808420121011,-5.1115046623919035e-05,0.0004852346647797565,0.09805536000983149
1.805,8.76705586516232e-06,0.0004906558765102048,-0.006730139998884393,-46.05409522192285,48.12809195970191,4.426271298606504,-1659128.9398874943,5095653.7291506035,3610010.0457655787,-148.06501397349766,-5261.090358063404,7366.172355424309,0.9951824911556838,-5.127320900412027e-05,0.0004864220089958079,0.09803861515675713
1.81,-2.977926371686341e-05,0.0004784504548181847,-0.006724920631164677,-46.04362432910918,48.09654168745464,4.42080152427762,-1659129.679495761,5095627.423699552,3610046.877054651,-147.77829271530675,-5261.090062489417,7366.343273395096,0.995184139952543,-5.137983922275888e-05,0.00048764402535559904,0.09802187077552738
1.815,3.4198576972581043e-06,0.000489657627711004,-0.006714595705881323,-46.016057041161346,48.04902820748321,4.410655144073124,-1659130.4176706732,5095601.118250037,3610083.709197995,-147.49167221465456,-5261.089743477831,7366.514064175239,0.9951857871973259,-5.157937378288224e-05,0.0004888262296860443,0.09800513940056571
1.82,8.09416431228882e-06,0.0005000917679292135,-0.0067250053810933895,-45.99654335695105,48.022775789801294,4.414388480035083,-1659131.1544129828,5095574.812802134,3610120.542194814,-147.20525159894976,-5261.089417514011,7366.684663521806,0.995187431620633,-5.169904337754969e-05,0.0004900444524684466,0.09798843364383177
