t_s,gyro_x_radps,gyro_y_radps,gyro_z_radps,accel_x_mps2,accel_y_mps2,accel_z_mps2,ins_pos_ecef_x_m,ins_pos_ecef_y_m,ins_pos_ecef_z_m,ins_vel_ecef_x_mps,ins_vel_ecef_y_mps,ins_vel_ecef_z_mps,ins_quat_w,ins_quat_x,ins_quat_y,ins_quat_z
0.0,-5.539753893694425e-06,0.0005752528953892788,-0.007473657905739723,-48.93020606344293,55.544814691052444,5.143936018206289,-1656201.7170614246,5097264.758841336,3591181.9960583495,-258.4057955714953,-5260.056020287632,7298.290012616031,0.9945218953682734,0.0,0.0,0.10452846326765353
0.005,1.3597464264348481e-05,0.0005769004638910272,-0.007485496652701646,-48.92369146072432,55.54885943746169,5.126589626245396,-1656203.008305223,5097238.45854786,3591218.4880019748,-258.09172380151466,-5260.06136984264,7298.487437526107,0.994523848218592,-1.6409926921128966e-07,1.4288063446092292e-06,0.10450988145823685
0.01,-7.02265369569171e-06,0.0005736281856914157,-0.007488667967152978,-48.94291557550001,55.54421954011209,5.138886637359978,-1656204.2979786769,5097212.15822739,3591254.9809326828,-257.7776577001737,-5260.066818385591,7298.684845554494,0.9945258038122782,-2.810479990085975e-07,2.866709120277841e-06,0.10449127017720183
0.015,-1.920982906409431e-05,0.0005798306839460447,-0.007493604229341925,-48.948359649960494,55.532537052761775,5.139623394559325,-1656205.5860816613,5097185.857879903,3591291.474850452,-257.46353608245425,-5260.072176116707,7298.8822622220505,0.9945277598839177,-4.4841003864295927e-07,4.291089424149333e-06,0.1044726509746068
0.02,1.720676550490324e-05,0.0005703198208938705,-0.0074819539120808435,-48.95156071986814,55.534028836419694,5.143539607211421,-1656206.8726140482,5097159.557505711,3591327.969755204,-257.14941866400716,-5260.077501026827,7299.0796385138765,0.9945297168938565,-6.476933202055231e-07,5.727708046413066e-06,0.10445401946215188
0.025,-2.2824277562321384e-05,0.0005687275013251178,-0.007487138975540928,-48.95160145121371,55.52835528027068,5.136476189456305,-1656208.1575758334,5097133.25710492,3591364.465646897,-256.83529539572714,-5260.082815262313,7299.277038672469,0.9945316705111253,-7.539493513151765e-07,7.150189244871764e-06,0.10443541687883905
0.03,8.281418529925127e-06,0.0005668124502255552,-0.007483015571305627,-48.9571457385317,55.532532293329375,5.137682694096131,-1656209.4409670206,5097106.956677501,3591400.9625255074,-256.52117948172724,-5260.0881522464015,7299.4744056706795,0.9945336251318884,-9.59320088779984e-07,8.558259753761176e-06,0.10441680136769378
0.035,-1.9419008163535477e-06,0.0005602104557358319,-0.007481739772606857,-48.96094375415725,55.52221862251257,5.137787290854279,-1656210.7227875663,5097080.656223394,3591437.460391016,-256.20703883488426,-5260.093490533029,7299.6717978129445,0.994535578326129,-1.0868516771745314e-06,9.96968870597e-06,0.10439819607127437
0.04,8.70259000333819e-06,0.0005665337969497801,-0.007486823888456667,-48.969060670942916,55.513228297289075,5.141859747593191,-1656212.0030374294,5097054.355742656,3591473.9592433977,-255.89290641889832,-5260.09880498933,7299.869154780364,0.9945375308375543,-1.2380787796424517e-06,1.1362034621874517e-05,0.10437959391045822
0.045,-1.1039484206298579e-05,0.0005586533246283071,-0.007461308197237051,-48.97669773210376,55.521733945522605,5.140110934682663,-1656213.2817166094,5097028.055235458,3591510.459082508,-255.57876556509072,-5260.104074093592,7300.06648930351,0.9945394843253764,-1.3644902315206852e-06,1.2772880187507922e-05,0.10436097907171075
0.05,1.2898575735295612e-05,0.000569720495688004,-0.007455425968077324,-48.96907293464886,55.514940832517865,5.140316391494734,-1656214.5588249706,5097001.754701869,3591546.9599083727,-255.26457891196597,-5260.1093616714725,7300.263856483039,0.9945414308070786,-1.5379305143839931e-06,1.4158981478017859e-05,0.1043424276378837
0.055,-1.0433986653078664e-05,0.0005777824486962837,-0.007485158178120568,-48.97657844938365,55.500945965295884,5.133483283559196,-1656215.8343625308,5096975.454141823,3591583.461721046,-254.95044521986856,-5260.11465662473,7300.461212828938,0.9945433754063137,-1.6547390462733202e-06,1.5578844074761087e-05,0.10432389079198383
0.06,-1.6932563146665262e-05,0.0005640195955364096,-0.0074739687634434865,-48.98678763638984,55.50031120224067,5.134423805488384,-1656217.1083293965,5096949.153555334,3591619.964520319,-254.63630100457587,-5260.119939010691,7300.658496458908,0.9945453274106595,-1.8316644847135932e-06,1.7012666088706146e-05,0.1043052799854268
0.065,-2.1349705446363124e-05,0.0005703266816908983,-0.007458421991899781,-48.98839834165886,55.49783849634829,5.141234408082627,-1656218.3807254483,5096922.852942478,3591656.4683060125,-254.32211967189048,-5260.125203127771,7300.855780985978,0.9945472761480039,-2.021158423196818e-06,1.841057410505122e-05,0.10428669696347644
0.07,-2.3287555110185133e-05,0.0005422387518116106,-0.007469009417384678,-49.003226186704424,55.497714499837514,5.136889840272701,-1656219.6515506236,5096896.552303372,3591692.9730781717,-254.00795054729974,-5260.130439392191,7301.053082737658,0.9945492204832288,-2.2232786504576864e-06,1.982301230893899e-05,0.10426815256015222
0.075,4.218474338278352e-06,0.0005673020387212248,-0.007496393510516804,-48.98564162531348,55.49184070770921,5.133059567202314,-1656220.9208047898,5096870.251638099,3591729.4788368004,-253.69371591089305,-5260.135669849978,7301.2503686692635,0.994551167231464,-2.4228959274196395e-06,2.116510823511694e-05,0.10424958179628575
0.08,-9.475938648330108e-06,0.0005735558638881668,-0.007497906255660289,-48.99911660443354,55.479592170576794,5.136277399965992,-1656222.1884880094,5096843.950946558,3591765.985581834,-253.37957191618548,-5260.140946269897,7301.447644755649,0.9945531207655374,-2.5606563612187144e-06,2.2576689521262744e-05,0.10423094290692524
0.085,-6.465369624506971e-06,0.0005426719089974383,-0.0074772760668939346,-49.0149086579119,55.47947431219261,5.143844820804717,-1656223.45460044,5096817.650228787,3591802.4933131416,-253.06540038768821,-5260.146162223023,7301.644878227803,0.9945550743419523,-2.734096037655828e-06,2.400025173914372e-05,0.10421230022020622
0.09,9.678873559886123e-06,0.0005939776374078805,-0.007474511813374271,-49.00501592141693,55.47821142523164,5.130571131369441,-1656224.719141877,5096791.349485073,3591839.002030658,-252.75117431627655,-5260.151323465444,7301.84212844866,0.9945570221950114,-2.8920028136067783e-06,2.5347808950262262e-05,0.10419370879144582
0.095,7.424476334889604e-06,0.0005759995893478999,-0.007488499183225857,-49.0241224466884,55.465907048468935,5.132674830587444,-1656225.9821122726,5096765.048715358,3591875.5117343655,-252.4369839531166,-5260.156562532677,7302.039354524738,0.9945589689754742,-3.0231328226224707e-06,2.6827137675059073e-05,0.10417512419770453
0.1,1.0335810756719734e-05,0.0005836636551199878,-0.007500845527953203,-49.0121198701966,55.4663291254609,5.137812608855689,-1656227.2435115813,5096738.747919617,3591912.0224240767,-252.12273952668735,-5260.1617337264,7302.236529811339,0.99456091904991,-3.1551869326536374e-06,2.8261178582067417e-05,0.1041565047894233
0.105,1.4951781554796497e-05,0.0005749587234128426,-0.007459836615820451,-49.021851121121536,55.465148827140524,5.134670856754616,-1656228.503339832,5096712.447097987,3591948.534099754,-251.80856077733446,-5260.1669183233325,7302.4337411203205,0.994562871987463,-3.2819988210354788e-06,2.9715033418495248e-05,0.10413785464611164
0.11,2.6303496427060536e-05,0.0005587401470074904,-0.007473129200645638,-49.031804320283186,55.45094821460832,5.138868168361587,-1656229.761597091,5096686.146250441,3591985.046761457,-251.49434282916755,-5260.172100480417,7302.63094016434,0.9945648138993399,-3.3950641965972777e-06,3.114844631949072e-05,0.10411930643074387
0.115,4.798921794682066e-06,0.000576303546785744,-0.007488292962447081,-49.035198188951085,55.455920781947384,5.1326050377442405,-1656231.0182832428,5096659.845377136,3592021.5604090434,-251.18011788536776,-5260.177221059974,7302.828094420774,0.9945667589240788,-3.4756838982888038e-06,3.254448786488705e-05,0.10410072512729947
0.12,-3.4586182403382896e-06,0.0005763887133885562,-0.007469218948116219,-49.0310134098303,55.43590541741354,5.119538562802843,-1656232.2733982045,5096633.544478137,3592058.0750424247,-250.86586680174744,-5260.182378587964,7303.025258039351,0.9945687075437367,-3.6143450768638464e-06,3.397860259652225e-05,0.10408210608539871
0.125,-2.9798610113939837e-05,0.0005564796239027656,-0.007486327458439942,-49.03904391493191,55.433863066908266,5.140835842545912,-1656233.5269420228,5096607.243553295,3592094.5906613627,-250.5516604980056,-5260.187558528562,7303.222317182547,0.9945706508504134,-3.773558521994271e-06,3.541078059326004e-05,0.10406353443364262
0.13,-1.7855299176779612e-06,0.0005763464204898234,-0.007467642021951548,-49.03971969147631,55.43745556919876,5.148273131351343,-1656234.7789148127,5096580.942602796,3592131.1072657313,-250.23745545131447,-5260.192641215367,7303.4194303095155,0.9945725982599516,-3.9930864119629205e-06,3.678660334430671e-05,0.10404492020877304
0.135,-1.8933273113704578e-05,0.0005635213787530358,-0.007479136844770929,-49.05309113916193,55.433369644355324,5.13167800035161,-1656236.0293165925,5096554.641626919,3592167.624855777,-249.92325648911927,-5260.197709380419,7303.616587818754,0.9945745404581207,-4.148127575371049e-06,3.821911024444084e-05,0.10402635240462356
0.14,-7.550631055079083e-06,0.0005592983647559391,-0.007478130075054744,-49.037961199431464,55.41377164425032,5.136217874409021,-1656237.278147209,5096528.34062561,3592204.1434314474,-249.60899007813225,-5260.202813990422,7303.8136804984015,0.9945764852975494,-4.342471251868245e-06,3.9615268819032267e-05,0.10400775598457614
0.145,2.3539836054593323e-05,0.0005716085241030792,-0.00747850549318198,-49.0541779301184,55.40761176892981,5.131120005507329,-1656238.525406782,5096502.0395988375,3592240.6629924714,-249.29483916774706,-5260.207895149238,7304.010728966657,0.9945784295261133,-4.507414491280121e-06,4.100388682222522e-05,0.10398916203015876
0.15,1.2234717958377163e-05,0.0006015259909266238,-0.007457973806217639,-49.059188611598515,55.40440933170983,5.130975959670342,-1656239.7710954465,5096475.738546708,3592277.1835386283,-248.98062659652817,-5260.212956862551,7304.2077339014095,0.9945803735017369,-4.598253305578493e-06,4.243119603320534e-05,0.10397056710240297
0.155,5.138905828368864e-06,0.0005686351115590198,-0.007471480425438867,-49.064744327620815,55.40270256711192,5.128715407675158,-1656241.0152130215,5096449.4374692915,3592313.70506979,-248.66640344985063,-5260.218009412094,7304.404730786432,0.9945823117884841,-4.724975901792709e-06,4.3929955279786344e-05,0.10395202319006747
0.16,-2.3658272967458695e-05,0.0005699128167320391,-0.0074484555725232125,-49.056277283459146,55.39203327103171,5.128302515039729,-1656242.2577594349,5096423.1363666095,3592350.2275859155,-248.35216183320406,-5260.223063393639,7304.601719292118,0.9945842532403536,-4.86079571912375e-06,4.534508857427404e-05,0.103933445658863
0.165,1.2156210529402981e-05,0.0006019940920193335,-0.0074878138052398464,-49.05682884444795,55.382930610653126,5.131817235450701,-1656243.4987347976,5096396.835238651,3592386.751086914,-248.03798322951462,-5260.22812003519,7304.798680239511,0.9945861883611447,-5.068547966751942e-06,4.6755916621267294e-05,0.10391492534493703
0.17,8.384510786180686e-06,0.0005740793886486119,-0.007499401078697437,-49.069848114647414,55.381366676039804,5.12405836005104,-1656244.738139329,5096370.534085479,3592423.2755726725,-247.72382942785714,-5260.233148838201,7304.995623188688,0.9945881333545743,-5.1955876449407965e-06,4.825581728484111e-05,0.10389630712708511
0.17500000000000002,-3.2557064287236665e-06,0.0005876443668403361,-0.007475820824056547,-49.07796672434529,55.36997989370967,5.132672499334164,-1656245.975972944,5096344.2329071425,3592459.8010430722,-247.4096164779287,-5260.238185719179,7305.192536610023,0.9945900810097942,-5.324756352170915e-06,4.968532903489213e-05,0.10387766006195055
0.18,-1.7979591112073858e-06,0.00058267774047111,-0.0074558822526301196,-49.07027970007599,55.36474546388435,5.129377815870973,-1656247.2122354982,5096317.931703794,3592496.3274979903,-247.09540523466904,-5260.243153861381,7305.389430636413,0.9945920221889148,-5.486387985514663e-06,5.1145547166900485e-05,0.10385907159318152
0.185,-1.3535953043601773e-05,0.0005782384405245401,-0.0074653220575354754,-49.07802040074533,55.36573203071445,5.125411048883412,-1656248.446927111,5096291.630475542,3592532.854937343,-246.78123988681367,-5260.248146811019,7305.586310427995,0.9945939578430733,-5.643102834886262e-06,5.259379463775993e-05,0.10384053266475092
0.19,-1.880007198781979e-06,0.0005483742490911503,-0.007455237338464072,-49.07756978858179,55.34363580932121,5.127695098640793,-1656249.6800478087,5096265.329222301,3592569.3833610844,-246.46703916024677,-5260.25314959264,7305.783186101467,0.9945958956001424,-5.8278528198814544e-06,5.4027956505922356e-05,0.10382197022965134
0.195,-4.1385803300776686e-07,0.000557857944713753,-0.007477261269052765,-49.07858591921444,55.35164362354888,5.128095362290171,-1656250.9115976312,5096239.027944173,3592605.912769021,-246.15288989743104,-5260.258101788658,7305.979988527459,0.9945978303959334,-5.975867652972539e-06,5.53908868547113e-05,0.10380343283264248
0.2,-8.281717525253019e-07,0.000580117323791658,-0.007458743316055301,-49.08261030658052,55.34692579760655,5.125965666846374,-1656252.1415766762,5096212.726641227,3592642.4431610755,-245.83872809048677,-5260.263076521645,7306.17683325391,0.9945997705574058,-6.1227010622372765e-06,5.67777784910812e-05,0.10378484063654074
0.20500000000000002,1.4837983564021118e-05,0.0005723506578803507,-0.007468564195789241,-49.08135766826893,55.33120371118518,5.126480158086409,-1656253.3699848973,5096186.425313414,3592678.974537306,-245.52456031370127,-5260.268048529307,7306.3736590551,0.9946017055623049,-6.276337496935439e-06,5.8219910825592865e-05,0.10376629444865025
0.21,-3.0038489102111354e-06,0.0005551323228567164,-0.007469320350295385,-49.0876713719539,55.32648090627315,5.125267488804581,-1656254.5968223822,5096160.12396081,3592715.5068975366,-245.21043366416043,-5260.27299310183,7306.570433198695,0.9946036427679219,-6.389006601514213e-06,5.964679518492552e-05,0.10374772380259904
0.215,2.862941171710133e-06,0.0005572897313833522,-0.007444565968849324,-49.08791003692354,55.317889921613826,5.118927449005509,-1656255.8220891962,5096133.822583511,3592752.040241592,-244.89629198616916,-5260.277926562065,7306.767189013208,0.9946055798231929,-6.541573787884995e-06,6.1026238340655285e-05,0.10372915124291977
0.22,-8.680841427521105e-06,0.0005709805022424922,-0.007483013608461977,-49.095733317659416,55.31154800271777,5.13587799553441,-1656257.0457853335,5096107.521181513,3592788.574569319,-244.5821629416752,-5260.282872848935,7306.963901645076,0.9946075101112661,-6.680108805300456e-06,6.241256769917713e-05,0.10371064019817444
0.225,2.681843789626242e-05,0.0005743440487607491,-0.007473458487050112,-49.08639746147086,55.302083357537406,5.134584397049005,-1656258.2679108367,5096081.219755006,3592825.10988067,-244.26803831279614,-5260.287729615407,7307.160638829492,0.9946094500173042,-6.8509033481129e-06,6.382994571983547e-05,0.10369203351790783
0.23,3.8684223322514945e-06,0.000584778284692637,-0.0074507837898715335,-49.087127031580884,55.292919363886696,5.122884349677342,-1656259.4884658756,5096054.918304189,3592861.646175646,-243.95397723287786,-5260.292597057751,7307.3573516048655,0.9946113870967563,-6.93429849950007e-06,6.526488990074012e-05,0.10367345055449817
0.23500000000000001,-1.2216777611188143e-05,0.0005663791825032592,-0.007436540033489345,-49.099922406368954,55.29076904179375,5.124787461344276,-1656260.7074506206,5096028.616828957,3592898.183454034,-243.6399207835491,-5260.297496084927,7307.554003503074,0.9946133179489618,-7.07746019894082e-06,6.671983120830102e-05,0.10365492393963376
0.24,-4.523622007586785e-06,0.0005688343147679867,-0.007481412880093604,-49.091669456647054,55.28301340981661,5.129764611577341,-1656261.9248649715,5096002.315329306,3592934.721715669,-243.3258195737654,-5260.302364213522,7307.750650663079,0.9946152447663668,-7.255848011438772e-06,6.812485448901247e-05,0.1036364327092418
0.245,3.2674443967484357e-07,0.0005633925245147234,-0.007476953373378916,-49.096433258614205,55.271614049765795,5.126142418508221,-1656263.1407089753,5095976.013805346,3592971.2609605384,-243.01178193749288,-5260.307219919631,7307.9472968854925,0.9946171828617866,-7.415750242046846e-06,6.953797493987552e-05,0.10361782986320558
0.25,-3.7778778302300437e-06,0.0005695620472704386,-0.007467375609782111,-49.11221484571388,55.26432334715717,5.112921317288153,-1656264.3549827933,5095949.71225714,3593007.8011885113,-242.69774529604933,-5260.312061996913,7308.143892288492,0.9946191194533072,-7.562181384017762e-06,7.093882066484931e-05,0.10359923806874835
0.255,-4.032608073197879e-06,0.000595903106346724,-0.007461214854579397,-49.11242848906184,55.248691538840035,5.126950960951876,-1656265.567686258,5095923.410684698,3593044.342399285,-242.3836405354132,-5260.316914958336,7308.3404172850505,0.9946210532139583,-7.72041505886609e-06,7.235394426987387e-05,0.10358067005410976
0.26,-3.147228809653607e-06,0.0005656556027613488,-0.007465801169490855,-49.104031519846785,55.24464831641718,5.123469308838782,-1656266.778819328,5095897.1090882,3593080.884592647,-242.06958746064797,-5260.321684398276,7308.536927521548,0.9946229850260397,-7.886102078178686e-06,7.383450043543197e-05,0.10356211732176175
0.265,2.1770558554112843e-05,0.0005493518668232789,-0.007448179723640452,-49.10620719021403,55.24445452015162,5.118977063313975,-1656267.9883822491,5095870.80746778,3593117.427768537,-241.755581014163,-5260.326483519802,7308.733428400477,0.9946249176827671,-8.041757156027325e-06,7.524007355833823e-05,0.10354355314943754
0.27,1.4216704117215451e-05,0.0005586784459012643,-0.007479735127018235,-49.104619531307854,55.237577783850746,5.119185752136099,-1656269.1963751155,5095844.505823313,3593153.971926917,-241.44156555259687,-5260.331303345741,7308.929923669696,0.9946268454339859,-8.13122891914378e-06,7.661155694476635e-05,0.10352503275338977
0.275,-1.353039103405365e-05,0.0005809164794384596,-0.007445183097883205,-49.10067239539105,55.226729516137624,5.114165809231545,-1656270.4027979698,5095818.20415476,3593190.5170677328,-241.1275761264512,-5260.336117801485,7309.126402559968,0.9946287810019678,-8.241903725150246e-06,7.800427579516712e-05,0.10350643385772534
0.28,-7.522484090796603e-07,0.000559684049698162,-0.007477605423444278,-49.102931120394196,55.209289171900245,5.117916827184581,-1656271.6076509696,5095791.902462107,3593227.06319083,-240.8136238645446,-5260.3409433224715,7309.322836393501,0.9946307072759435,-8.42732138769213e-06,7.94451117934989e-05,0.10348792084688413
0.28500000000000003,-5.316473993195108e-06,0.0005702196714512394,-0.007465335181626127,-49.10955587155927,55.19810345014028,5.1175134882186075,-1656272.81093429,5095765.600745455,3593263.610295965,-240.4997042299743,-5260.345717462701,7309.519217614139,0.9946326415945941,-8.575478404202558e-06,8.083645697294348e-05,0.10346932717713132
0.29,-1.6413574766659045e-05,0.0005552936849764695,-0.00746009688471035,-49.111616122040196,55.189213379329075,5.114563257681319,-1656274.012648003,5095739.299005006,3593300.1583828996,-240.18578096429803,-5260.350461930338,7309.715556287003,0.9946345723880287,-8.737707541611993e-06,8.225281942694303e-05,0.10345076398272647
0.295,8.059884985473276e-06,0.0005700400912442368,-0.007443760764087852,-49.11761533143479,55.18134742600048,5.111399468244728,-1656275.212792123,5095712.997240849,3593336.7074514367,-239.8718670329497,-5260.355201392302,7309.911858484971,0.9946365014813471,-8.923669237223824e-06,8.362919720226069e-05,0.10343221378019397
0.3,4.478061186846617e-06,0.0005549624262102551,-0.007441728086568074,-49.09937844301428,55.186846738996046,5.115596432653474,-1656276.411366647,5095686.695453018,3593373.257501394,-239.5579426474487,-5260.359930935671,7310.108124382952,0.9946384260007471,-9.052585156943027e-06,8.504857195798079e-05,0.10341370415736732
0.305,2.5348122290732083e-06,0.0005815884056214086,-0.0074601714325540705,-49.1259573015853,55.17110537007899,5.115033372558017,-1656277.6083717572,5095660.393641436,3593409.8085328285,-239.24410133850344,-5260.364701935965,7310.304449442329,0.9946403496514286,-9.186509097307105e-06,8.642952864338244e-05,0.1033951995540834
0.31,-8.049181982466921e-06,0.0005731950232419315,-0.007457657303125543,-49.11349021430171,55.160841096878144,5.115806071411864,-1656278.8038074484,5095634.091806199,3593446.360545692,-238.93017515413968,-5260.369392341476,7310.500695980491,0.9946422777165671,-9.332151600277133e-06,8.787619075218526e-05,0.10337664905328278
0.315,-1.9653218537405023e-05,0.000540705138370321,-0.007465839318624346,-49.11137675260873,55.148481208891766,5.119262182157148,-1656279.9976737127,5095607.789947495,3593482.9135397403,-238.61633059576712,-5260.374089818378,7310.6969232631845,0.9946442047856159,-9.501942568567428e-06,8.929924651184916e-05,0.10335810477049012
0.32,-1.7432014823214618e-05,0.000553835329714193,-0.007443294204795718,-49.12043154608389,55.13763756220676,5.109694495675497,-1656281.1899708607,5095581.488065376,3593519.467514852,-238.30252857169089,-5260.378757691186,7310.893121452362,0.9946461336277831,-9.692194847124273e-06,9.063851392858565e-05,0.10333954010940617
0.325,1.6249160432427695e-05,0.0005633266383772808,-0.007461139439414011,-49.10844189267789,55.12149359702176,5.109696054340915,-1656282.3806989312,5095555.186159912,3593556.0224707825,-237.98869962126955,-5260.383427812633,7311.089250749178,0.9946480562952029,-9.880310904306918e-06,9.20110054405093e-05,0.10332103147244127
0.33,7.994081637194517e-06,0.0005676161682705997,-0.0074472274452888195,-49.12116748236893,55.12000164141318,5.113148764441005,-1656283.5698580798,5095528.884231108,3593592.578407245,-237.67495984992487,-5260.388093649281,7311.285334312299,0.9946499832235601,-9.987130403647026e-06,9.341579769323075e-05,0.10330247841711038
0.335,-1.770413497176039e-05,0.0005782681281786646,-0.007462159712526026,-49.12045026105591,55.11853544882748,5.101210213153451,-1656284.7574484204,5095502.582279064,3593629.135324131,-237.36117637677074,-5260.392724147279,7311.481420236361,0.9946519062104393,-1.011558173314633e-05,9.482912478751835e-05,0.10328395992143058
0.34,1.06312783717163e-05,0.0005777061081261591,-0.007441076865748976,-49.11760857649355,55.10253652378645,5.108639212646219,-1656285.9434698352,5095476.280303734,3593665.6932213744,-237.04738958341648,-5260.397407709778,7311.677477015884,0.9946538327022898,-1.0310688990982388e-05,9.62623034176843e-05,0.10326540426446806
0.34500000000000003,-2.372047953595802e-05,0.0005651659398673454,-0.007474990645203762,-49.12642123342084,55.09273371353713,5.103017541749332,-1656287.12792246,5095449.978305117,3593702.252098821,-236.73366029528745,-5260.402039194876,7311.873501665027,0.9946557534049194,-1.043518625974367e-05,9.770140018897529e-05,0.10324690098998364
0.35000000000000003,-1.6097115604931032e-05,0.0005800676143916697,-0.007442785360537898,-49.12146794314825,55.07622938299033,5.1007447255298075,-1656288.3108063815,5095423.676283369,3593738.8119562576,-236.41990831600086,-5260.406660150008,7312.0694729033485,0.994657682515632,-1.0641875408729764e-05,9.910044638372558e-05,0.10322831335677353
0.355,-2.0023305562159798e-05,0.0005540350072779579,-0.0074622827740124294,-49.119834016771705,55.07374568463931,5.096035204465422,-1656289.4921216818,5095397.374238542,3593775.3727934016,-236.10621177238457,-5260.41127049316,7312.26538462984,0.9946596029637085,-1.0833445668167875e-05,0.00010053851593074476,0.1032098057682563
0.36,-1.0381151568049689e-05,0.000562766159130766,-0.007425522237169654,-49.10989408485961,55.060256230695636,5.111374505370132,-1656290.671868529,5095371.072170603,3593811.9346100735,-235.79252711741395,-5260.415904973705,7312.461284061017,0.9946615281017569,-1.1028066829977531e-05,0.00010191083790470782,0.10319124966217239
0.365,1.1685932261712357e-05,0.0005733466227817224,-0.007443858222901568,-49.11912484364047,55.0513593996429,5.101360974721058,-1656291.85004719,5095344.770079649,3593848.497406258,-235.4789372837634,-5260.420476560363,7312.657189671939,0.9946634434080159,-1.1200954369315892e-05,0.00010330735967358191,0.10317278492818159
0.37,8.433239965485739e-06,0.0005724222355489353,-0.00746980552502961,-49.11944516468065,55.04720889745878,5.0939427941571855,-1656293.026657822,5095318.467965818,3593885.061181814,-235.16531556639578,-5260.425056154753,7312.853032868741,0.9946653630959669,-1.1321702376102475e-05,0.00010473588270036859,0.10315427455700751
0.375,1.510275342056767e-05,0.0005443472577720856,-0.007438846886723677,-49.11805804255519,55.02235316047722,5.113587429615063,-1656294.2017003524,5095292.165829021,3593921.6259365156,-234.85169655855697,-5260.42966270354,7313.048847785124,0.9946672891277902,-1.1450307137690742e-05,0.00010616126749341647,0.10313569962844389
0.38,-1.1282998865192781e-05,0.0005670209129529173,-0.0074535405981542855,-49.12599820855516,55.01838493885564,5.096447673015218,-1656295.3751749946,5095265.863669499,3593958.191670204,-234.53816032253715,-5260.434145754089,7313.244627571364,0.9946692068375204,-1.1555079980418236e-05,0.00010751855964285719,0.1031172016467562
0.385,1.1718489137036247e-05,0.0005512703219512827,-0.0074239010621928656,-49.11693151989651,55.00700470311463,5.105868981649229,-1656296.547081845,5095239.561487438,3593994.758382638,-234.22457987033283,-5260.4386788249385,7313.440346132741,0.9946711279817188,-1.173131461662321e-05,0.00010892543123455255,0.1030986670971171
0.39,-8.637863517557803e-06,0.0005706800615191606,-0.007435226316522762,-49.118435308546466,54.99071416776823,5.097585257079842,-1656297.717420992,5095213.259282802,3594031.3260736587,-233.91107889078447,-5260.443175309239,7313.636062133904,0.9946730411454449,-1.1846284225132386e-05,0.00011029906556923416,0.10308020620979548
0.395,8.271018766678687e-06,0.0005610722828298735,-0.00744793944879393,-49.12457804021379,54.992822461955306,5.096832744379986,-1656298.8861926799,5095186.957055684,3594067.894743057,-233.59759628352265,-5260.447671967082,7313.831697132548,0.9946749568766297,-1.2016878640337526e-05,0.00011171571954937398,0.10306171712943485
0.4,8.565635256295853e-06,0.0005690225852359438,-0.007431520573499533,-49.11354448961226,54.98456682356152,5.098928445023462,-1656300.0533968892,5095160.654806076,3594104.4643906574,-233.28408744205177,-5260.452171635983,7314.027342907224,0.9946768755403432,-1.2142954012131829e-05,0.00011311283821267598,0.1030431963951779
0.405,9.32414237655444e-06,0.0005747944202062567,-0.00744601003527019,-49.12120131868833,54.961899834958174,5.097661526130266,-1656301.2190337372,5095134.35253396,3594141.0350164645,-232.970651793902,-5260.4566747558565,7314.222979979861,0.9946787896261047,-1.2270340177733702e-05,0.00011452980318549684,0.10302471645343321
0.41000000000000003,-1.110071488649276e-05,0.0005557599886407307,-0.007458690801587353,-49.11581245817789,54.95460264208207,5.0935373181991555,-1656302.3831034356,5095108.050239464,3594177.6066202256,-232.65722757456297,-5260.461123139832,7314.418524593054,0.9946807070961295,-1.2397330914515182e-05,0.00011596131584100976,0.10300620044455223
0.41500000000000004,-2.2138950812601797e-06,0.0005678158204874862,-0.007435878315889281,-49.12554565960038,54.943350636830615,5.08734347783221,-1656303.5456061086,5095081.747922681,3594214.179201643,-232.3438415583349,-5260.465590044802,7314.614042211895,0.9946826274892822,-1.2570214190628521e-05,0.00011734023539105064,0.10298765287293814
0.42,3.7650642118626667e-06,0.0005508978606841974,-0.007444924434909563,-49.11389641969476,54.92560433680042,5.0849523534423815,-1656304.706541789,5095055.445583598,3594250.7527604937,-232.0304305788626,-5260.4700435188,7314.809498157049,0.9946845416589086,-1.272409586165219e-05,0.0001187514230151023,0.10296916199039359
0.425,-9.941993545646852e-06,0.0005720435820659899,-0.007423544435504432,-49.11221075368551,54.91952456234865,5.09592173839646,-1656305.865910633,5095029.143222244,3594287.3272964763,-231.7171070479776,-5260.474497681823,7315.004894842713,0.994686457816322,-1.2858757197669445e-05,0.00012012207934841155,0.10295064857569676
0.43,2.076170514835091e-05,0.0005359639766060052,-0.007430724756832032,-49.1229805348418,54.89990883396813,5.09262330758314,-1656307.0237129563,5095002.840838735,3594323.9028094844,-231.40382225466266,-5260.478906053036,7315.200308508002,0.9946883681186826,-1.303294008473769e-05,0.00012154179185782698,0.1029321882946615
0.435,-7.699749781757897e-06,0.000582301901390591,-0.007429198850736481,-49.1157815678204,54.89117265902728,5.088811773468553,-1656308.1799488286,5094976.538433299,3594360.4792993404,-231.09052675424363,-5260.483268264979,7315.395633752129,0.9946902799358768,-1.3121489237349961e-05,0.00012287968517870143,0.10291371011433192
0.44,2.8591346375385965e-06,0.0005885266982320911,-0.007417051247614872,-49.116082667606996,54.879030842275796,5.089534028402278,-1656309.334618347,5094950.236006008,3594397.056765746,-230.77728054318334,-5260.487648195677,7315.5909285254,0.9946921910001671,-1.3292735767465452e-05,0.00012432548553062235,0.10289523570002587
0.445,-2.3623635200523546e-07,0.0005599978000262439,-0.007425073094046658,-49.110546155246354,54.86660848611851,5.087761832307295,-1656310.4877217035,5094923.933556876,3594433.635208531,-230.46406205407246,-5260.492004739914,7315.786185337284,0.994694098593352,-1.343932267248621e-05,0.00012578948178242132,0.10287679145438927
0.45,-1.209808092797455e-05,0.0005705241084176786,-0.007412324561619021,-49.106487874631576,54.8621030841859,5.08545000283112,-1656311.6392590955,5094897.631085967,3594470.2146274964,-230.15089473065922,-5260.496359067023,7315.981401018402,0.9946960079141327,-1.35862720598754e-05,0.0001271817377998464,0.10285832722685387
0.455,1.6631267606263718e-05,0.0005707193354539763,-0.007423812171391149,-49.103388937441245,54.860966953428196,5.081087253301311,-1656312.7892307243,5094871.328593248,3594506.7950225114,-229.83775685289538,-5260.500728402211,7316.176604914669,0.9946979136087872,-1.3765421508908712e-05,0.00012859712017489078,0.1028398946694313
0.46,1.450063097748415e-05,0.0005708664687450213,-0.00742429312493165,-49.10530988406511,54.82654349754055,5.08506398821364,-1656313.9376367049,5094845.026078611,3594543.376393534,-229.52463535760737,-5260.505126548888,7316.371804131348,0.9946998219137033,-1.3873182281567137e-05,0.00013002037389787363,0.10282143350043359
0.465,-6.241738261786916e-06,0.0005838482498837548,-0.007438500094007423,-49.106797559455586,54.82027571052378,5.078676782732187,-1656315.084477241,5094818.723542209,3594579.958740251,-229.21157901134416,-5260.509434163287,7316.566882701888,0.994701729997449,-1.3986279386583577e-05,0.0001314434457549858,0.10280297110048305
0.47000000000000003,-1.4636134666488344e-05,0.0005730709781997703,-0.007429558582844788,-49.09540471979456,54.80991096302132,5.0832682525962065,-1656316.2297525015,5094792.42098423,3594616.5420622732,-228.89852526013377,-5260.513757376703,7316.7619262547505,0.9947036413820947,-1.4154298745870028e-05,0.00013289346862712493,0.10278447334195509
0.47500000000000003,-2.3536143445513483e-05,0.0005606089687440179,-0.0074159926929935225,-49.09829363272079,54.793402891474706,5.086594795593207,-1656317.373462698,5094766.118404661,3594653.1263594883,-228.58555331145362,-5260.518070069205,7316.956959785292,0.9947055501267458,-1.434042063075736e-05,0.00013431453425698388,0.10276599778626437
0.48,3.3855993114606546e-06,0.0005677260904969821,-0.0074271096283383175,-49.09771179057802,54.78835069903418,5.082294598447307,-1656318.515608103,5094739.815803652,3594689.7116317446,-228.27260874366323,-5260.522333802916,7317.151942708088,0.9947074550454444,-1.4545468498664157e-05,0.00013570232370603954,0.1027475559335785
0.485,2.6905554133979052e-06,0.0005663091732348588,-0.007392588251020553,-49.10439672670059,54.772380575444465,5.081522350160113,-1656319.656188816,5094713.513181287,3594726.297878859,-227.95967647086445,-5260.526611985663,7317.34690308775,0.9947093624738973,-1.4685400154631465e-05,0.00013711472669719515,0.10272908639067928
0.49,9.160049824138107e-06,0.0005528523126342443,-0.007428370748983872,-49.0929744936232,54.756360719265054,5.075906862565807,-1656320.795204878,5094687.21053763,3594762.885100618,-227.64674834162676,-5260.530850765998,7317.541800372757,0.9947112606935896,-1.482668449219895e-05,0.0001385234288531961,0.10271070265945405
0.495,-2.3954611062134003e-05,0.0005592443451243633,-0.007434536434796124,-49.09675020879445,54.73709466468949,5.070203156479681,-1656321.9326564972,5094660.907872737,3594799.473296709,-227.3338992876637,-5260.53510632798,7317.736636098395,0.9947131677629416,-1.4948437610063637e-05,0.00013990032662390252,0.10269222990789939
0.5,9.924235273870966e-06,0.0005785504119524261,-0.007417451534025129,-49.09056637154449,54.72821526513266,5.074282490969773,-1656323.068543913,5094634.605186621,3594836.0624667592,-227.02106705812636,-5260.539340374987,7317.931384020963,0.9947150760664754,-1.5154182882434983e-05,0.00014128461816692483,0.10267374179932107
0.505,-3.3519162212726895e-05,0.0005810278538667919,-0.0074106057766689035,-49.09160396445967,54.70834919954567,5.075265024356117,-1656324.2028673056,5094608.302479373,3594872.6526105246,-226.7082899116032,-5260.5435586249705,7318.126122057487,0.9947169796341944,-1.5280628182254467e-05,0.00014272561656736825,0.1026552961289705
0.51,-7.587857621569083e-06,0.0005725634911477071,-0.0074216736997890585,-49.09003365395131,54.70770499093226,5.068498294405461,-1656325.335626909,5094581.999751144,3594909.243727807,-226.39555150696245,-5260.5477332222345,7318.320790871567,0.994718881098659,-1.551574155327724e-05,0.00014416162682675878,0.10263686746252094
0.515,-2.3716748649347466e-07,0.0005371552789625634,-0.007412825176666967,-49.084913424947764,54.690769973561615,5.071927355297423,-1656326.4668228345,5094555.697001951,3594945.8358184067,-226.08281863721726,-5260.551944084284,7318.515448962675,0.994720785063121,-1.5684201122953413e-05,0.0001455832412231277,0.10261841122787908
0.52,-8.853530150165866e-06,0.00055718431631368,-0.0074091157159718955,-49.093249219113915,54.68057435694053,5.073074381361589,-1656327.5964552558,5094529.394231788,3594982.4288821835,-225.77014988330234,-5260.55612104501,7318.710061759424,0.9947226864267563,-1.5825293919880698e-05,0.00014691868849491614,0.10259997696099216
0.525,2.89542996606317e-06,0.0005586470025651983,-0.007442062822325973,-49.08232767035249,54.66204068467535,5.065449422934309,-1656328.724524305,5094503.091440833,3595019.022918935,-225.4574697918446,-5260.560260856249,7318.9046388205925,0.9947245864879015,-1.5992950024330195e-05,0.00014830173411082824,0.10258155188577822
0.53,1.445616632143534e-05,0.0005532470419847954,-0.007405313900114651,-49.081355952279345,54.65198677601827,5.0605319447347545,-1656329.8510301507,5094476.788629134,3595055.617928377,-225.14486850126468,-5260.56441860644,7319.099138062804,0.9947264946536472,-1.6131776001353248e-05,0.00014969142884938485,0.10256304483735645
0.535,1.7416237618895023e-05,0.0005723635557534249,-0.007403132845655834,-49.08303773128863,54.642362094056274,5.059575817679351,-1656330.9759730457,5094450.485796631,3595092.213910205,-224.8322895485942,-5260.568582582052,7319.293593104551,0.9947283930546239,-1.6240454202417746e-05,0.00015107066056931136,0.10254462913711677
0.54,-1.8838696437512655e-05,0.0005744366311577073,-0.007418210482897618,-49.0675402762616,54.6167513457605,5.067324844025113,-1656332.099353083,5094424.182943343,3595128.8108642236,-224.5197253207454,-5260.57273264326,7319.488014480309,0.9947302905465565,-1.634667114628603e-05,0.00015249819052181305,0.10252621882353584
0.545,-1.5515008892555796e-05,0.0005525926093647793,-0.0074144429203358685,-49.075248864136256,54.60846603487058,5.056040453339643,-1656333.2211706287,5094397.880069428,3595165.4087902005,-224.20729295264766,-5260.576833199328,7319.682376182401,0.9947321915573744,-1.654358489694829e-05,0.00015392158247947834,0.10250777099283417
0.55,1.459265376116595e-06,0.0005653589075589489,-0.007409628303476092,-49.072816580977204,54.598386224085104,5.055988211161085,-1656334.3414259427,5094371.577174967,3595202.0076878304,-223.894832639363,-5260.580951252347,7319.876675688915,0.9947340912672964,-1.6726633789673564e-05,0.0001552915039200784,0.10248933249560443
0.555,3.01020853488643e-07,0.0005703683812543639,-0.00740531166820155,-49.07374903154801,54.585851283651756,5.066258863907225,-1656335.4601190428,5094345.274259941,3595238.6075568837,-223.58240744656854,-5260.585059284617,7320.070945671247,0.9947359893958552,-1.6870739607681532e-05,0.00015669752239356316,0.10247090592901832
0.56,1.801183936914945e-05,0.0005693205955553914,-0.007402173656423321,-49.05829097893864,54.570477134828295,5.054774706647628,-1656336.5772501114,5094318.971324532,3595275.2083972534,-223.27002000411986,-5260.589104032704,7320.265202203684,0.9947378860734379,-1.7019007410902364e-05,0.0001581157020385737,0.10245249006210784
0.5650000000000001,5.602209880612112e-06,0.000543031179883666,-0.007386930168366327,-49.070459714458785,54.55278518370186,5.0500335661812334,-1656337.692819464,5094292.668368776,3595311.8102087257,-222.95772097495734,-5260.593198436804,7320.459386763149,0.9947397816056321,-1.712296154177454e-05,0.00015953581237592476,0.10243408195668113
0.5700000000000001,-2.150428051147848e-06,0.000550662557491041,-0.0074179142831917394,-49.07260762548488,54.53729212208588,5.0634881683154855,-1656338.806827265,5094266.365392646,3595348.4129909063,-222.6453994734366,-5260.5972537908265,7320.653485486649,0.9947416729022744,-1.7251038136976326e-05,0.00016088736756946458,0.10241571173038438
0.5750000000000001,-1.1895596622581011e-06,0.0005524532779589483,-0.0073947895025014004,-49.04967452225147,54.51756483889258,5.063540001002739,-1656339.919273563,5094240.062396452,3595385.0167435366,-222.33311969177507,-5260.601224026343,7320.847566588988,0.9947435717861292,-1.740036080110229e-05,0.0001622559145148224,0.10239726441863498
0.58,-1.143417929882186e-05,0.0005682829639979506,-0.007416455300783507,-49.05283117238467,54.50190354576758,5.049560091094586,-1656341.0301588234,5094213.759380382,3595421.6214664443,-222.02098448662392,-5260.605203874959,7321.041596603707,0.9947454644065857,-1.7547742946962587e-05,0.00016362916165511477,0.1023788745791848
0.585,1.4126159146371206e-05,0.0005364491287879982,-0.007412978388234067,-49.05226454258812,54.49528128664146,5.051973781158087,-1656342.1394834137,5094187.456344361,3595458.2271592626,-221.7088516049631,-5260.609204284968,7321.235530756803,0.9947473622224944,-1.772466248556402e-05,0.0001650391519779344,0.10236043082805099
0.59,6.602573651154608e-06,0.0005689291664796134,-0.007389998495204789,-49.0525202382485,54.47891320591656,5.051866648024366,-1656343.2472473986,5094161.153288378,3595494.8338217265,-221.39674236236186,-5260.613188999754,7321.4294547424,0.9947492588192174,-1.782986907264159e-05,0.00016637651675692933,0.10234199567903791
0.595,-3.1271437347773278e-06,0.0005691158823438756,-0.007387036004174371,-49.0396970821731,54.45767792414555,5.043802310604984,-1656344.3534509232,5094134.850212546,3595531.4414536664,-221.08466751485707,-5260.617143953874,7321.623321255635,0.9947511491800826,-1.7962086477722805e-05,0.00016779273128962247,0.10232361764454886
0.6,-2.733791495745643e-06,0.0005977801370606145,-0.007386446682608557,-49.04342306987856,54.450248669777274,5.051024060682559,-1656345.4580943026,5094108.547116895,3595568.050054718,-220.77268425998196,-5260.621116203635,7321.817099306051,0.9947530384411896,-1.8118547016416506e-05,0.00016920692128760532,0.10230524694636758
0.605,-1.5326642523952617e-05,0.0005615427582528104,-0.007403089422898768,-49.03726479220241,54.432819528424474,5.047493525522827,-1656346.561177796,5094082.2440014975,3595604.6596246506,-220.4607130179124,-5260.625043087691,7322.010873705727,0.9947549271981092,-1.8281360337899567e-05,0.0001706924964953951,0.10228687767718866
0.61,-3.877914076898299e-06,0.0005634393273570888,-0.007372737862888049,-49.03043736910696,54.42012832485538,5.047712221957071,-1656347.6627015844,5094055.940866479,3595641.27016329,-220.14880242157292,-5260.628964383633,7322.204582153155,0.9947568198836857,-1.8466231235756406e-05,0.00017208473239753785,0.10226846699124648
0.615,-7.283034600606731e-06,0.0005671498294371244,-0.0073873231826218355,-49.029614557809296,54.400223682180176,5.045918653392915,-1656348.7626659698,5094029.637711873,3595677.881670383,-219.8369516724808,-5260.632877596913,7322.398254907838,0.9947587044676426,-1.862310221596531e-05,0.00017348461331422862,0.10225013174625511
0.62,-5.989966663358608e-06,0.0005611401178470166,-0.007376496630869297,-49.02731995456867,54.39333391801983,5.03816299451141,-1656349.8610712097,5094003.334537775,3595714.49414565,-219.52514435045225,-5260.636761754315,7322.591851978158,0.9947605924376002,-1.8789396197136e-05,0.00017489285069300698,0.10223176019537263
0.625,1.6538538067784423e-05,0.0005685524942820488,-0.007373308414109829,-49.02035129516996,54.37474335422326,5.03102504877322,-1656350.9579174602,5093977.031344187,3595751.107588807,-219.21335581002504,-5260.640673188859,7322.785410769778,0.9947624773024291,-1.8950933747100392e-05,0.00017628647344130843,0.1022134155337533
0.63,-6.542786258010874e-06,0.000559137598794886,-0.007378138831148982,-49.0166113953657,54.35928852636678,5.041571134018905,-1656352.0532049222,5093950.728131024,3595787.721999557,-218.90162898305857,-5260.644592273778,7322.978889438749,0.9947643610102256,-1.9058337718330243e-05,0.00017770428695378223,0.10219507875570054
0.635,-1.4587315101981824e-05,0.0005620310967397791,-0.007370355009276444,-49.01480613659739,54.34805890625211,5.045100012845394,-1656353.1469339107,5093924.424898419,3595824.3373776497,-218.5899664057013,-5260.648449810889,7323.172347455679,0.9947662456150114,-1.922073963614703e-05,0.00017909278917470798,0.10217672994058337
0.64,1.931860337511691e-06,0.0005568121465669672,-0.007381058277659772,-49.015241993087955,54.32448874872384,5.034610587680866,-1656354.2391046835,5093898.121646596,3595860.95372297,-218.27834273900598,-5260.652279194627,7323.365780700537,0.9947681278897536,-1.9403883247126432e-05,0.00018048643268452755,0.10215840045170929
0.645,1.0046927276539626e-05,0.0005701865956492438,-0.007392397620271142,-49.005006192900424,54.314750641697714,5.037809438424282,-1656355.3297174212,5093871.8183756415,3595897.5710351667,-217.9667523195365,-5260.656102815101,7323.559097988051,0.9947700125610497,-1.9544616908860514e-05,0.00018187131543153775,0.1021400443025246
0.65,4.2892443110244495e-06,0.0005557494780027864,-0.007373564014682503,-49.00009621442917,54.28566608425137,5.036744258402521,-1656356.4187723906,5093845.515085584,3595934.1893139184,-217.6552354496679,-5260.659920311027,7323.752402731503,0.9947718997809487,-1.966858932360941e-05,0.00018329153099754764,0.1021216599138668
0.655,-6.686365909391185e-06,0.0005509844009723469,-0.007378365036130607,-49.00135015277636,54.27739486264437,5.035192593340914,-1656357.506269974,5093819.21177655,3595970.8085589255,-217.34379787501646,-5260.663693236964,7323.945600030201,0.9947737818580143,-1.9803186198528357e-05,0.00018467437336910382,0.10210332233141824
0.66,-1.2511222266116995e-05,0.0005518249665782807,-0.0073681471469757495,-48.99306391699282,54.258417557468206,5.027565471175701,-1656358.5922104025,5093792.90844867,3596007.428769845,-217.03237361158932,-5260.6674584987895,7324.138767775465,0.9947756648220797,-1.9963864580968764e-05,0.00018604256338990656,0.1020849727795336
0.665,9.94170438552358e-07,0.0005374888125270816,-0.0073533909301559544,-48.985854098644324,54.24456826220349,5.03373475867321,-1656359.676593879,5093766.6051019365,3596044.0499463985,-216.72101700115246,-5260.671235148004,7324.331853541686,0.9947775448378344,-2.013923879035795e-05,0.00018741135771688117,0.10206664860670431
0.67,7.618590867835786e-06,0.0005494496750416361,-0.00737413317957106,-48.986531117446496,54.226542762681305,5.031703009775083,-1656360.7594207507,5093740.301736402,3596080.6720883218,-216.40973161168304,-5260.67497832745,7324.524915796526,0.9947794207569842,-2.0277360817699482e-05,0.00018874794563809933,0.1020483610913997
0.675,1.1500955128475849e-05,0.0005360510592204388,-0.007372094317475313,-48.98006379057705,54.21655522991009,5.031195777132174,-1656361.8406912775,5093713.99835222,3596117.295195381,-216.0984791384376,-5260.678694574492,7324.71790800507,0.9947813016236329,-2.04020694990209e-05,0.00019011596852133367,0.1020300219526824
0.68,1.9055886989911834e-05,0.0005563161407328827,-0.007379480977243062,-48.97310879656788,54.199055763693366,5.026705289009846,-1656362.9204056729,5093687.6949494565,3596153.919267334,-215.78727900511342,-5260.68241096626,7324.910873096404,0.9947831816369582,-2.0513704293226913e-05,0.00019145166000667733,0.10201168784850362
0.685,1.915073125173145e-05,0.000553358545876641,-0.007387694877075605,-48.96807790004744,54.171883796592816,5.022858603387739,-1656363.9985642252,5093661.391528112,3596190.544303941,-215.476141884932,-5260.686127003868,7325.103769839334,0.9947850631846883,-2.06117220059295e-05,0.00019283967618177947,0.10199333533448142
0.6900000000000001,1.9922782971968226e-05,0.0005422780636226979,-0.007368007235776172,-48.96274239342455,54.1712460976386,5.022234260398613,-1656365.0751672736,5093635.088088259,3596227.1703047636,-215.16507751216338,-5260.689814022413,7325.29655918236,0.9947869464873837,-2.0708753659930937e-05,0.00019422036062328955,0.10197496235795474
0.6950000000000001,3.687116549219597e-07,0.0005534698754710545,-0.0073815774201306215,-48.95783888849676,54.15763723377345,5.0272303238548215,-1656366.1502150758,5093608.784629922,3596263.797269557,-214.85404333324752,-5260.6935207262095,7325.489358098276,0.9947888244360832,-2.08010308506689e-05,0.000195573686044722,0.10195663830926432
0.7000000000000001,8.96129843108869e-06,0.000555700190289812,-0.007354921268588095,-48.951983955496225,54.127161113547366,5.020285091869835,-1656367.2237078543,5093582.481153134,3596300.4251982756,-214.54306808934507,-5260.697194352082,7325.68212925731,0.9947907054972008,-2.0944797797062576e-05,0.00019694986024855766,0.10193828048603443
0.705,8.778442984684047e-06,0.0005603323606336841,-0.007357410348186494,-48.951216179334594,54.107762659791995,5.018420530734448,-1656368.2956459527,5093556.177658035,3596337.0540905274,-214.23217126852032,-5260.70084531043,7325.874771611037,0.9947925794249993,-2.1067750433969695e-05,0.00019833377230589022,0.10191998891690073
0.71,-7.596715579077607e-06,0.0005613034662919065,-0.007347467825237366,-48.951216425270836,54.108716757056115,5.016585482360025,-1656369.366029672,5093529.874144751,3596373.6839458067,-213.92131651402622,-5260.704468455189,7326.06734003182,0.994794453646326,-2.1192339332863366e-05,0.00019972915769480792,0.10190169112265048
0.715,-1.7075544542213735e-05,0.0005649952775463239,-0.00734392005605391,-48.939464976205876,54.07533766951645,5.0124770911610055,-1656370.4348591224,5093503.570613308,3596410.3147639483,-213.61046357892286,-5260.708108708955,7326.259916575053,0.9947963249953385,-2.1357895445589116e-05,0.0002011227870280466,0.10188341802881261
0.72,-3.153528246331027e-06,0.0005458767024901881,-0.00736330101491463,-48.93360817895354,54.0598568159346,5.012668529565034,-1656371.502134592,5093477.267063735,3596446.946544653,-213.2997243351363,-5260.711720524327,7326.45236535975,0.9947981951008783,-2.1547963863641345e-05,0.0002025231836444278,0.10186515372825122
0.725,7.813830233580503e-06,0.0005458151079406206,-0.007348048290174691,-48.931235351537296,54.04463874019189,5.013062148136869,-1656372.5678565167,5093450.963496144,3596483.5792874815,-212.98904547778628,-5260.715315846436,7326.644766101974,0.9948000698143242,-2.169854930393082e-05,0.0002038795767588508,0.10184684118668945
0.73,-9.434431455680367e-06,0.0005580658263242494,-0.00734007994871848,-48.92533953305563,54.02620597451672,5.007850098188468,-1656373.6320251583,5093424.659910636,3596520.212992191,-212.6784111871824,-5260.718887346369,7326.837117527576,0.9948019403065351,-2.1821835457065793e-05,0.00020523860992274285,0.10182856653843964
0.735,-1.7245343252733988e-06,0.0005529731367399433,-0.007357153876999377,-48.924295571834655,54.004908663109184,5.01249402140126,-1656374.694640776,5093398.356307275,3596556.8476584693,-212.36783586458094,-5260.722456956138,7327.029393853349,0.9948038084257691,-2.1991132707489715e-05,0.00020662372013340494,0.1018103116811554
0.74,-1.1749176011671759e-05,0.0005486819461927229,-0.007340442776600578,-48.92294340780603,53.99015035251013,5.004845873391264,-1656375.7557036546,5093372.05268621,3596593.483285971,-212.0573155814583,-5260.725969299265,7327.221606927945,0.9948056805561334,-2.213996796179329e-05,0.00020799812613533344,0.1017920143225876
0.745,-1.3775434920842819e-05,0.0005647638188232614,-0.007340338109397761,-48.9103539025949,53.96905124866442,5.002974636901547,-1656376.815214004,5093345.749047565,3596630.1198743614,-211.74682412806044,-5260.729488450315,7327.413749201189,0.9948075480978682,-2.231263392279889e-05,0.00020935930966861435,0.101773758495663
0.75,-4.333847744340585e-06,0.0005622022748971366,-0.0073760020658157725,-48.89790260903279,53.959973771197795,5.008958540240369,-1656377.873172141,5093319.445391344,3596666.757423286,-211.4364307202937,-5260.733000178399,7327.60582047533,0.9948094152675037,-2.2494430947165077e-05,0.00021075997350755956,0.1017555028947408
0.755,9.388717376097994e-06,0.0005538064977669437,-0.00735505688026502,-48.89925098855769,53.940296631111394,4.999419021871142,-1656378.9295785255,5093293.141717591,3596703.3959325654,-211.12612307138826,-5260.736500766231,7327.797891404366,0.9948112911729173,-2.265211367768732e-05,0.00021215666648275567,0.10173715855725336
0.76,-6.902514730438321e-07,0.000530531982864456,-0.007350966562267522,-48.883140135146384,53.90389504284598,4.9999451202371175,-1656379.9844334298,5093266.838026342,3596740.035401954,-210.8158386257299,-5260.739998808058,7327.9898640324855,0.9948131614170554,-2.2773521478249607e-05,0.00021353597027397645,0.10171886626953675
0.765,1.0108145147914193e-05,0.0005683366528724347,-0.00732915945494308,-48.89113644200559,53.90638193077495,4.996038142641414,-1656381.0377372731,5093240.534317715,3596776.675830897,-210.5056987646697,-5260.743452117829,7328.181713217445,0.9948150302948947,-2.2914075171487295e-05,0.00021485482668794038,0.10170058412672163
0.77,-4.047427661248722e-06,0.0005442042056514808,-0.007341281067722101,-48.881134748151425,53.8829433492594,4.986160240274783,-1656382.0894903187,5093214.23059179,3596813.3172190906,-210.19551941382136,-5260.746917810982,7328.373564201526,0.9948168932716949,-2.3037373017962974e-05,0.00021627045142132788,0.10168235617659833
0.775,-6.014381109021291e-06,0.0005564827901432253,-0.007341977230295312,-48.87700683539054,53.870042119135185,4.9867841369900825,-1656383.1396926683,5093187.926848504,3596849.9595662765,-209.8854204546592,-5260.750396889034,7328.565310125466,0.9948187590056464,-2.3189748307687646e-05,0.00021762245853802764,0.10166409805416461
0.78,-2.9874541263160742e-05,0.0005622685505590569,-0.007346246453664135,-48.86953479809133,53.84369187659024,4.992519873322738,-1656384.1883446444,5093161.623087861,3596886.6028720974,-209.57536997107775,-5260.753860096702,7328.757018198069,0.9948206245727303,-2.335013660182259e-05,0.00021900450303473858,0.10164583816625992
0.785,6.931479493903072e-06,0.0005532408372667519,-0.007333494481100433,-48.85997091858023,53.82759645801941,4.99246414151286,-1656385.2354466037,5093135.319310052,3596923.24713627,-209.2654138240344,-5260.75726331863,7328.948650922349,0.9948224908828234,-2.357133892021838e-05,0.00022039487347750853,0.10162756763883869
0.79,-4.443674415103907e-06,0.0005354164682805285,-0.007328889750070189,-48.85338221703183,53.8038761784129,4.99132762817671,-1656386.280998977,5093109.015515251,3596959.892358486,-208.95553541047016,-5260.760657197925,7329.140235473685,0.9948243536232746,-2.3698701899983782e-05,0.0002217721434324425,0.10160932877212552
0.795,2.3709081031844464e-06,0.0005554332848790891,-0.007339107097988802,-48.85060468972781,53.783671358008874,4.981016329751083,-1656387.32500215,5093082.711703552,3596996.538538413,-208.6457337887478,-5260.764022361714,7329.33173538435,0.994826214867206,-2.384982521366456e-05,0.00022310219374001465,0.10159110133070128
0.8,-9.400732698056637e-06,0.000554004859168744,-0.007349106859816559,-48.84479445765079,53.76622971645115,4.978680753368426,-1656388.3674564187,5093056.407875008,3597033.1856755917,-208.3359737310112,-5260.767395225554,7329.523136052047,0.9948280783590749,-2.3989089730848897e-05,0.0002244837572500456,0.1015728484387276
0.805,8.01234393958434e-06,0.0005567055730899143,-0.007306749110334199,-48.82837194123777,53.75056217930121,4.9849033530178595,-1656389.4083620382,5093030.1040296275,3597069.8337696157,-208.0262740814841,-5260.770756893527,7329.714473562512,0.9948299440530305,-2.4157274025667587e-05,0.0002258587782915319,0.10155457064890092
0.81,3.036257342655394e-05,0.0005719143997837985,-0.007314547344238829,-48.83588309114526,53.723465710753494,4.975792778817018,-1656390.447719449,5093003.800167487,3597106.4828202697,-207.71669017658013,-5260.774099502765,7329.905787925145,0.9948317986566536,-2.4282812444623725e-05,0.00022724493963640155,0.10153639816169328
0.8150000000000001,1.5791107578201415e-05,0.000546857602914018,-0.007339818853951839,-48.828939843566666,53.712477048525585,4.973937452749469,-1656391.4855289636,5092977.496288718,3597143.1328271637,-207.40711569476963,-5260.777408098907,7330.096969808123,0.9948336548982126,-2.4356629111930965e-05,0.0002286745993970437,0.10151820623191814
0.8200000000000001,3.8084850139010357e-06,0.0005589935485066259,-0.007341120987650543,-48.81797395454443,53.69039399538112,4.9826094242284285,-1656392.521790742,5092951.192393396,3597179.783789881,-207.09759564087244,-5260.780720638752,7330.288117012086,0.9948355172312396,-2.4460341377253088e-05,0.00023003824100696271,0.10149995142536489
0.8250000000000001,-1.7986745202685174e-06,0.0005546338481251163,-0.007306329777426373,-48.81379589395685,53.67373549030039,4.968742628105079,-1656393.556505185,5092924.888481648,3597216.435708217,-206.78818159484524,-5260.783978518036,7330.479217297201,0.9948373795500424,-2.4596935724158178e-05,0.00023142902504460667,0.1014816933520627
0.8300000000000001,-5.914159325221604e-06,0.0005575799337741348,-0.007313640635485447,-48.80855964066304,53.66605188571473,4.975342814594501,-1656394.58967265,5092898.5845535295,3597253.08858182,-206.4788044115634,-5260.787269075232,7330.670223984407,0.9948392327089154,-2.4746349388829537e-05,0.00023280754560124623,0.10146352177704715
0.835,-4.633172629008167e-06,0.0005475687165377425,-0.007327045663898207,-48.79448075221663,53.62880302525929,4.9763776435146525,-1656395.6212933583,5092872.280609021,3597289.7424104586,-206.16947884797926,-5260.790534357174,7330.861231575958,0.994841087386109,-2.490675021516675e-05,0.00023419234890240283,0.10144533198734125
0.84,1.7495754164315654e-05,0.0005696554924994971,-0.007322671955813663,-48.787019847415586,53.608175650096804,4.973624937657989,-1656396.6513677824,5092845.976648318,3597326.3971938174,-205.8602907999585,-5260.793746671623,7331.052111870917,0.9948429451338447,-2.5061433957869388e-05,0.0002355525772396856,0.10142710882365624
0.845,-7.614324659929915e-06,0.0005519387311213239,-0.007303797696125223,-48.78484095003298,53.59704848363809,4.971882235490811,-1656397.6798964485,5092819.672671587,3597363.052931388,-205.5511757229698,-5260.7969454892,7331.242916235183,0.9948448014253818,-2.5166678594347716e-05,0.00023697334913732354,0.10140889648922766
0.85,2.609158362238554e-06,0.0005563832745973827,-0.007294185438813052,-48.78617629720908,53.582010102943016,4.964750452428238,-1656398.7068796232,5092793.36867888,3597399.7096228823,-205.2420940906005,-5260.80013771907,7331.433681673199,0.9948466526062847,-2.532987202601024e-05,0.0002383436926094464,0.10139073107908997
0.855,-5.086075832983026e-06,0.0005448967478306639,-0.0073187262445775746,-48.76339363839534,53.55083841136529,4.966686920723215,-1656399.732317434,5092767.064670214,3597436.367268022,-204.93303026255182,-5260.803328445006,7331.624374248423,0.9948485010155377,-2.5468759315770414e-05,0.0002397276821244835,0.10137258953542931
0.86,-4.032505036748785e-06,0.0005322230438874972,-0.007304110490511264,-48.76133401872096,53.532682436940966,4.9563675686571536,-1656400.7562103425,5092740.760645657,3597473.0258663925,-204.62413310766263,-5260.806494386911,7331.81497394761,0.9948503553167778,-2.5623889237909224e-05,0.00024108115139713957,0.10135438692713702
0.865,-6.048626717340728e-06,0.0005543046904305536,-0.00730122609162909,-48.76026669248342,53.51031781157508,4.961396973532607,-1656401.7785588515,5092714.4566052435,3597509.685417533,-204.31527051238825,-5260.80967121743,7332.005482055258,0.994852205588108,-2.5773178640553375e-05,0.00024240336738796172,0.10133622063619507
0.87,-1.2758710075814795e-05,0.0005498266196958552,-0.007301185170906223,-48.7436344300613,53.49984640606961,4.959197031639295,-1656402.799363191,5092688.152549098,3597546.3459210466,-204.0064652979989,-5260.81278674749,7332.195923549009,0.9948540547817653,-2.5933074820801865e-05,0.00024377999265493726,0.10131806148496561
0.875,1.2343193024633595e-05,0.0005242830583757199,-0.007277766103576298,-48.73454093757575,53.47906934985851,4.964471957517318,-1656403.8186237456,5092661.84847731,3597583.0073767044,-203.69775649725096,-5260.8159286466525,7332.386339494412,0.9948559036339979,-2.6108525577864607e-05,0.0002451437806442214,0.10129990240594189
0.88,9.735076301042755e-06,0.0005695171893648409,-0.007309988561473305,-48.724456876098124,53.449432211935985,4.95119571154296,-1656404.836340983,5092635.5443899175,3597619.66978431,-203.38913849925805,-5260.819028365365,7332.57670265019,0.9948577462404596,-2.6215061131762506e-05,0.0002464503967241261,0.10128180152587
0.885,-1.2878787037985103e-05,0.0005386129578740266,-0.007295404462807062,-48.727593047276834,53.44006854669942,4.960321304427631,-1656405.852515349,5092609.240286995,3597656.3331433814,-203.08060790541745,-5260.822140698013,7332.766925958606,0.9948595966450926,-2.6339556778477906e-05,0.00024786885403695654,0.10126362046866938
0.89,9.114729083698777e-06,0.0005433724851951347,-0.007287125325443045,-48.720042183080785,53.413335032479914,4.953543926823302,-1656406.867147113,5092582.936168651,3597692.9974535545,-202.77209764683738,-5260.825196720278,7332.957143418444,0.9948614430417836,-2.6512463740481772e-05,0.0002492047238946702,0.10124547566639666
0.895,7.714134908862877e-06,0.0005417436428289738,-0.007295369077033987,-48.71159145133366,53.394486325501916,4.951612223746188,-1656407.8802365232,5092556.632035056,3597729.6627145354,-202.46366653193192,-5260.828241230916,7333.147248889141,0.9948632870090248,-2.663186898418563e-05,0.00025055799875342604,0.10122735140776695
0.9,-5.113072048004068e-06,0.0005351182429687699,-0.007276680805738258,-48.69790086557665,53.3659300695493,4.943584330298373,-1656408.8917839662,5092530.327886266,3597766.328925879,-202.15531058475165,-5260.831275017623,7333.337288688551,0.9948651327310375,-2.675435067365443e-05,0.00025190686734482984,0.10120920661278797
0.905,-1.1958966807584086e-05,0.0005507674275061643,-0.0072969469106172495,-48.69267483418664,53.35265617337776,4.943779916234898,-1656409.9017899001,5092504.023722301,3597802.996087128,-201.84706298597033,-5260.834310597379,7333.527210724594,0.9948669733959137,-2.6907047558653394e-05,0.00025323601307530435,0.1011911082733405
0.91,-3.1678306158791526e-06,0.0005693713292946026,-0.007296278042298611,-48.68055968334052,53.33326508720035,4.938658429578932,-1656410.9102547294,5092477.719543192,3597839.6641978873,-201.53886874412225,-5260.837333244347,7333.717092949869,0.9948688188453046,-2.708074304732059e-05,0.0002546023476409572,0.10117295949821048
0.915,9.889194927438e-06,0.0005555382346610801,-0.0072752443386007075,-48.66875301661845,53.30479312065957,4.940890304214431,-1656411.9171788087,5092451.415348949,3597876.333257873,-201.2307629714673,-5260.840364024768,7333.906901425186,0.9948706637812732,-2.7237278562404955e-05,0.00025601717683434376,0.10115481234595175
0.92,-1.168879159144462e-05,0.000553548477970599,-0.0072794633416837255,-48.66812540611366,53.29334708059123,4.934276168814527,-1656412.9225626413,5092425.111139657,3597913.0032666754,-200.92277010397777,-5260.843352463419,7334.096619597697,0.9948725030758027,-2.7357827266546115e-05,0.00025740090397685753,0.10113671746705513
0.925,2.888587803897822e-05,0.0005360816697875619,-0.007267301702499243,-48.65871794120224,53.26880950373633,4.930371913545628,-1656413.9264065614,5092398.806915402,3597949.674223931,-200.61479794272663,-5260.846349523535,7334.286282520793,0.9948743431056621,-2.753154394650373e-05,0.00025877422604275946,0.10111861207508403
0.93,1.439440944986684e-05,0.0005322181709113649,-0.007258714913275851,-48.65239756362825,53.247416279230976,4.933222027899872,-1656414.9287108385,5092372.502676197,3597986.346129267,-200.30691292592505,-5260.849332526492,7334.475851913743,0.9948761797444013,-2.7599920456537072e-05,0.000260114362797095,0.10110053687270132
0.935,1.4524577466354433e-05,0.0005391483388926338,-0.007252476236225643,-48.64270440633327,53.22403734225118,4.935661181243542,-1656415.9294758814,5092346.198422177,3598023.018982289,-199.9991042035467,-5260.852275687214,7334.665356856817,0.9948780138845467,-2.7703357911315682e-05,0.0002614412280620489,0.10108248300347586
0.9400000000000001,3.0761196426780863e-06,0.0005532241628169126,-0.007291724612879748,-48.631701164634364,53.1968858451771,4.934024683306401,-1656416.9287021167,5092319.89415353,3598059.692782658,-199.69138993096772,-5260.855182991687,7334.85479091893,0.9948798461144958,-2.7808218822552057e-05,0.0002627853632462502,0.1010644446170521
0.9450000000000001,2.481172125509428e-05,0.0005393527291642133,-0.0072569440147685765,-48.62575557580662,53.178368218434294,4.927985911248491,-1656417.9263900355,5092293.589870411,3598096.3675299566,-199.38377754475152,-5260.858064516247,7335.0441284672315,0.9948816879202524,-2.7945136522453364e-05,0.0002641616124183121,0.10104630858503093
0.9500000000000001,-6.0948635730058324e-06,0.0005546103015837127,-0.007276489551215058,-48.62074121378847,53.16727920226788,4.927523464658851,-1656418.9225400372,5092267.285572883,3598133.0432237484,-199.07622317990922,-5260.860947086796,7335.233388086206,0.9948835206196692,-2.8024466220866046e-05,0.0002655088535998415,0.1010282590124675
0.9550000000000001,-1.0277659354408307e-05,0.0005326988707071657,-0.007266078512005326,-48.60510839281813,53.13871116892868,4.921745847460915,-1656419.9171523862,5092240.981260955,3598169.719863755,-198.7687163999736,-5260.863823806291,7335.422614718355,0.9948853579132148,-2.818453362851055e-05,0.0002668862359961293,0.101010160811988
0.96,-1.0343375534045323e-05,0.0005636417720239395,-0.007266073953129062,-48.600819577261454,53.120748098345146,4.917948111397082,-1656420.910227501,5092214.676934652,3598206.3974496205,-198.46132950195388,-5260.86669732893,7335.611731367576,0.9948871922614371,-2.8349464393186374e-05,0.00026820806437074986,0.10099208847675413
0.965,2.435058486267438e-06,0.0005225176972979599,-0.00726913752888573,-48.59419465286087,53.08817099873172,4.922298651861133,-1656421.9017658124,5092188.372594006,3598243.075980892,-198.15399502505787,-5260.869560934282,7335.800777163533,0.9948890262575981,-2.852237106643871e-05,0.0002696068378051741,0.10097401611719554
0.97,-9.036348672073506e-06,0.0005684762010050156,-0.007265144997723097,-48.5879362852157,53.074565531372784,4.921255234581191,-1656422.8917677004,5092162.0682392195,3598279.7554571284,-197.84676024118963,-5260.872353734523,7335.989717510726,0.9948908607254797,-2.8653115828273942e-05,0.0002709065519295152,0.10095593609864245
0.975,2.970100224508895e-05,0.0005202694337069811,-0.007249834370979911,-48.57502058415873,53.049426818762406,4.914518678554883,-1656423.880233557,5092135.763870486,3598316.4358779574,-197.53958238486362,-5260.875139788974,7336.178614037376,0.9948926938235009,-2.88239893313669e-05,0.0002723176802215632,0.10093786598138758
0.98,1.7918969344513037e-05,0.0005500676251253295,-0.0072757129867727964,-48.568315746299234,53.029555976937296,4.91744607698778,-1656424.867163775,5092109.459487814,3598353.117243016,-197.23250478760534,-5260.8779286808785,7336.367409539055,0.9948945227642141,-2.8886338912429914e-05,0.000273618683289153,0.10091983388889518
0.985,6.322290112029572e-06,0.000523664903972343,-0.007254620105596686,-48.55050567330739,53.006321336790926,4.910591050096542,-1656425.8525587933,5092083.155091289,3598389.7995519084,-196.92550248891257,-5260.880681658795,7336.55614723838,0.9948963578830792,-2.8985528957356375e-05,0.00027499082693877323,0.10090173740262562
0.99,-1.9882237105892297e-05,0.0005204866901500261,-0.007249386980037021,-48.549747136667946,52.98813467457415,4.915669352712547,-1656426.8364190964,5092056.850680954,3598426.482804265,-196.61861881388415,-5260.883452330556,7336.744795385893,0.9948981873684811,-2.9106888025573227e-05,0.00027629437678515945,0.10088369335584971
0.995,1.7998726029540256e-05,0.0005667439527849578,-0.00725878166537013,-48.537900364202606,52.96383035551644,4.913641253059068,-1656427.8187451023,5092030.546256897,3598463.1669997373,-196.31178348527277,-5260.886170307613,7336.933393630661,0.9949000152056126,-2.9292618986151892e-05,0.0002775834128994135,0.10086566231014114
1.0,2.1388761537922396e-05,0.0005289902110874025,-0.007226234733165775,-48.51673662206667,52.93573024653015,4.903956648772756,-1656428.7995371812,5092004.241819291,3598499.8521379875,-196.00504810274268,-5260.88887230685,7337.121906437933,0.9949018450533684,-2.939580145315236e-05,0.00027899705383319876,0.10084760783446561
1.0050000000000001,-2.146849540554893e-05,0.0005423818415713056,-0.007238549590822244,-48.511355952769925,52.896994995354774,4.90475099741072,-1656429.77879593,5091977.937368114,3598536.5382185155,-195.69845149112174,-5260.891598808617,7337.310304780364,0.9949036663939674,-2.9481010891421717e-05,0.0002803176485911055,0.10082963427845594
1.01,-1.4097387065769595e-05,0.0005416429510361829,-0.007236377940031785,-48.50076599609723,52.895882882262576,4.902266291905087,-1656430.7565219474,5091951.6329034865,3598573.2252406813,-195.39195542328557,-5260.894251747072,7337.4985616003605,0.9949054904992359,-2.967620173834303e-05,0.0002816607476010389,0.10081163008810617
1.0150000000000001,1.197100839021646e-05,0.0005663041590795187,-0.007228099093043021,-48.502674257675615,52.871879115569094,4.903451338611983,-1656431.7327156141,5091925.328425504,3598609.9132041475,-195.08551130493967,-5260.896941113351,7337.68682482888,0.994907313730711,-2.985287093403241e-05,0.00028300386659735175,0.10079363126090002
1.02,-2.2151566832938624e-05,0.0005312345055661331,-0.007242008468306317,-48.48081307585076,52.84432599534655,4.901716520905245,-1656432.707377165,5091899.023934216,3598646.6021087132,-194.7791090071117,-5260.899574279648,7337.875001393524,0.9949091345333924,-2.9970909401084638e-05,0.00028441489397968594,0.10077565297197943
1.025,9.631717396843328e-06,0.0005312533613249662,-0.007244498693289868,-48.477516661282124,52.82621769965722,4.888375715448419,-1656433.680507082,5091872.719429772,3598683.2919539376,-194.47285777666,-5260.902203251207,7338.063088457504,0.9949109585353951,-3.0164994484724264e-05,0.0002857300956176873,0.10075764008037766
1.03,-5.7727443514326656e-06,0.0005407506918180576,-0.007223834628734071,-48.466794781339864,52.80884011188022,4.8976077128466455,-1656434.6521058325,5091846.41491212,3598719.9827393503,-194.16664243596227,-5260.90485748404,7338.251076483853,0.9949127828390617,-3.02800322424641e-05,0.000287053349894982,0.10073962093897366
1.035,-3.383618284322102e-05,0.0005489714538188914,-0.007205935262085837,-48.45962328993065,52.77750802475346,4.895213523976992,-1656435.6221737484,5091820.1103813145,3598756.6744646356,-193.86052395320849,-5260.90746487285,7338.439037742709,0.9949146016033154,-3.0435762294467725e-05,0.0002883963485818247,0.10072165317212928
1.04,1.1929654366556118e-05,0.0005357043062021149,-0.007228367748941031,-48.44834470899051,52.74193493720149,4.892500744584092,-1656436.5907112998,5091793.805837573,3598793.36712943,-193.55449657309651,-5260.910031912023,7338.626880075227,0.9949164155268354,-3.0663351264896586e-05,0.0002897527294368364,0.10070372991278974
1.045,-1.5112504326562691e-05,0.0005416031759923858,-0.007232372482910663,-48.44588760661664,52.73127775030865,4.891211490592114,-1656437.557719006,5091767.501281097,3598830.0607331023,-193.24858590833486,-5260.912558534504,7338.8145887340615,0.9949182347853374,-3.077378339007576e-05,0.00029108763119624494,0.1006857507922225
1.05,-2.026320004170352e-06,0.0005458546374706215,-0.007229710877274329,-48.426608219431586,52.70842159341387,4.89032387004021,-1656438.5231972444,5091741.196712005,3598866.755275228,-192.9427094118637,-5260.915078234436,7339.002261616344,0.9949200547186312,-3.095296509175754e-05,0.0002924303978845857,0.10066776169684268
1.055,3.350287849987471e-06,0.0005501800283044616,-0.007228784571185304,-48.422204726444654,52.678460563848,4.881621651046833,-1656439.4871464304,5091714.892130319,3598903.4507555426,-192.63696498720563,-5260.91759591459,7339.189864233674,0.994921873653006,-3.1100665532195025e-05,0.00029378703273570406,0.10064977917869469
1.06,-1.774594695578762e-05,0.0005450863648533834,-0.007247101989201276,-48.41049052426514,52.66717429823724,4.881654726850803,-1656440.4495670644,5091688.587536091,3598940.1471735374,-192.33128866416598,-5260.920095558479,7339.377333553859,0.9949236920246942,-3.12360803943463e-05,0.0002951557790131863,0.10063179892720195
1.065,8.620103998678637e-06,0.0005519632894111971,-0.007210489634335542,-48.398951288170565,52.63065260171611,4.875476502900837,-1656441.4104595133,5091662.282929351,3598976.844528811,-192.0256908489676,-5260.922600575367,7339.564775905243,0.9949255146791521,-3.1422700160603024e-05,0.00029650654686680665,0.10061377309745279
1.07,1.1522726506971654e-05,0.0005267258055351535,-0.007205686660574582,-48.385925396911105,52.61820747673325,4.869408486950791,-1656442.3698242607,5091635.978310156,3599013.5428209286,-191.720208172819,-5260.9250771909265,7339.752071286134,0.9949273277945021,-3.1545441918298074e-05,0.0002978810545381138,0.10059583828098445
1.075,2.8731698222096754e-05,0.000551084675384897,-0.007199417241872947,-48.37768997245409,52.59202344518838,4.87603446784005,-1656443.3276617916,5091609.673678504,3599050.2420494044,-191.41480412180337,-5260.927583214474,7339.939318989215,0.9949291393960857,-3.1654613378146085e-05,0.00029919351881431064,0.10057791537802005
1.08,-1.2156200364783298e-05,0.0005025688720213593,-0.007212439309351731,-48.371263619497505,52.56294600091004,4.868012506554918,-1656444.2839725474,5091583.369034478,3599086.9422139386,-191.10949819361875,-5260.930027269987,7340.126494722257,0.994930949080003,-3.1727100780580756e-05,0.0003005708989688852,0.10056000802153103
1.085,-1.1673701241351207e-05,0.0005369450198831928,-0.007205198116230926,-48.35457199959068,52.52914160023815,4.863935838627488,-1656445.2387569644,5091557.064378269,3599123.6433140365,-190.8042686788561,-5260.932456683982,7340.313544290074,0.9949327617462598,-3.188910267322562e-05,0.00030181732408827777,0.10054206827665929
1.09,5.099453007185568e-06,0.0005299125845429738,-0.007172480905120041,-48.344480742357376,52.51872382372926,4.869733314270111,-1656446.192015574,5091530.759709962,3599160.345349067,-190.49917515078758,-5260.934866176643,7340.500467975129,0.9949345722416744,-3.20585395787191e-05,0.00030314937585438896,0.10052414650710814
1.095,7.29844639931697e-06,0.0005529819452941777,-0.007186441788561878,-48.33295737891922,52.486829564019864,4.856515912222229,-1656447.1437489085,5091504.455029653,3599197.0483186943,-190.19415863565428,-5260.937256971172,7340.687382919474,0.9949363741984567,-3.218446387678735e-05,0.00030446815337913016,0.10050630607147179
1.1,-1.91275092553721e-05,0.0005414780705445103,-0.007190426998391484,-48.32351037620967,52.468827317951316,4.862529143673706,-1656448.0939574044,5091478.150337367,3599233.7522225264,-189.88923973166368,-5260.939657569968,7340.874149870383,0.9949381793234012,-3.23107256853305e-05,0.00030584486357902523,0.10048843087426577
1.105,6.072984392554352e-06,0.0005491953046046634,-0.007204810342304806,-48.31712104954025,52.44222587032699,4.850522364394621,-1656449.0426415259,5091451.845633173,3599270.457060094,-189.5844088533422,-5260.9420198200405,7341.060877338952,0.9949399851329869,-3.249983099521491e-05,0.0003071863204901208,0.1004705457529591
1.11,-5.026629021330513e-07,0.0005416175855229954,-0.0071909368040967425,-48.30177600048692,52.41191549863945,4.8532764671125355,-1656449.9898016595,5091425.540917153,3599307.1628309814,-189.2796445913898,-5260.944388768049,7341.2474774539605,0.9949417942274512,-3.2628203280297875e-05,0.0003085533013627665,0.10045262480254454
1.115,1.1228143797401276e-05,0.0005336819012892024,-0.007181821765936515,-48.28674776537262,52.38920876889659,4.8505363151314285,-1656450.9354383028,5091399.2361893905,3599343.8695346345,-188.97501274931673,-5260.946716039435,7341.433983869911,0.9949435995191201,-3.27710178143121e-05,0.00030989978344047377,0.10043473833351364
1.12,1.6003916483550237e-05,0.0005230735046643359,-0.0071895920699702,-48.29867234890042,52.37690164165595,4.849513437208284,-1656451.8795520626,5091372.93145,3599380.577170624,-188.670491166171,-5260.949040093875,7341.620411810044,0.9949454022062908,-3.288265400228073e-05,0.0003112294727200304,0.1004168744958173
1.125,7.800210850545582e-06,0.0005334072775453497,-0.007195145815127846,-48.26862750821735,52.341960121162266,4.841462354981949,-1656452.8221431468,5091346.626699093,3599417.285738618,-188.3659424413402,-5260.951322835743,7341.80678602289,0.994947206529961,-3.297975398767312e-05,0.0003125339732416357,0.10039899129512506
1.1300000000000001,-8.613244795868457e-06,0.0005425454617729525,-0.0071822269111450465,-48.255526919688855,52.32628228162101,4.8492384064236225,-1656453.763211969,5091320.321936721,3599453.9952381575,-188.06158649042126,-5260.953625927615,7341.993029612372,0.9949490119154405,-3.309985768761103e-05,0.00031386211799047317,0.10038109425314702
1.135,-7.648993309034238e-07,0.0005387721375890216,-0.0071666157391995135,-48.23985036350309,52.29567787755946,4.831565467738008,-1656454.7027592678,5091294.017162914,3599490.705668859,-187.7573330104139,-5260.9558965428605,7342.179251078457,0.9949508137272053,-3.326307087094446e-05,0.0003152088747732257,0.10036322932481556
1.1400000000000001,-6.4758510622941735e-06,0.000515457302855132,-0.007187252281837769,-48.236106557376665,52.273595881036066,4.832414872782521,-1656455.6407855696,5091267.712377658,3599527.417030289,-187.45318768431332,-5260.95820595565,7342.365320729502,0.9949526113037311,-3.340580318980262e-05,0.0003165482162855098,0.10034540318901329
1.145,7.94974411523144e-06,0.0005232817891163246,-0.007176963173753611,-48.22519221495995,52.242086839946516,4.842231282891739,-1656456.5772913024,5091241.407580953,3599564.1293218783,-187.14910543287638,-5260.960476285203,7342.551315099996,0.9949544137531543,-3.355690830361519e-05,0.00031782813041325385,0.1003275256962443
1.1500000000000001,1.7281577124732362e-05,0.0005280790609176025,-0.00716986229395843,-48.21723797472951,52.21363019103782,4.827310220498995,-1656457.512276933,5091215.102773099,3599600.842543233,-186.84514686445144,-5260.962665264077,7342.737226899478,0.9949562132944256,-3.36740857355214e-05,0.00031913112602970165,0.10030967375182658
1.155,3.69562597980048e-06,0.000528525562357105,-0.007154211027000957,-48.19802549262384,52.19158892105456,4.8320629148297005,-1656458.4457429538,5091188.797954258,3599637.556693793,-186.54126145240048,-5260.964871294098,7342.922996900458,0.9949580107302287,-3.3769248610099414e-05,0.00032044839501202535,0.10029183942978684
1.16,1.066940144964135e-05,0.00050917123139012,-0.007171481392896791,-48.1942300560726,52.16698302186378,4.826301676889508,-1656459.377689891,5091162.493124443,3599674.271773074,-186.23751343524108,-5260.967054599831,7343.108715468284,0.9949598039195784,-3.3898304513649376e-05,0.000321763369437771,0.10027404401714911
1.165,-1.4297854831731194e-05,0.0005326357303362344,-0.007151724816289927,-48.17646295242735,52.13911110028131,4.827173975692704,-1656460.3081182365,5091136.188283758,3599710.9877806874,-185.93382473145212,-5260.969219154808,7343.294330025356,0.9949616011337874,-3.4005175890443666e-05,0.00032303194856451854,0.10025620560991895
1.17,3.484688083152592e-06,0.0005178473836207299,-0.007138222409436147,-48.16259147246411,52.106554299483456,4.821713688594653,-1656461.2370284793,5091109.883432311,3599747.704716156,-185.63027240481642,-5260.971359938625,7343.479857393894,0.9949633930544978,-3.418001610855596e-05,0.00032435263714938525,0.10023841633113703
1.175,1.1603620788809195e-05,0.0005491134678721983,-0.007136556698898158,-48.1554141313532,52.09098715358643,4.826911995937617,-1656462.1644212585,5091083.578570203,3599784.4225789434,-185.32683923686383,-5260.9734831476735,7343.665257591036,0.9949651812858931,-3.430690701762623e-05,0.00032564099835977146,0.10022066059304488
1.18,1.205604557625142e-05,0.0005153347369781093,-0.007153447579793741,-48.13968822507752,52.06371750043384,4.821359092167628,-1656463.0902970524,5091057.273697564,3599821.141368647,-185.02347836344512,-5260.975572081902,7343.850623890933,0.994966968756626,-3.442143519032185e-05,0.0003270091654837172,0.1002029089568838
1.185,9.678114452921027e-06,0.0005361766067333218,-0.007159060960758442,-48.13257293417897,52.04062413138233,4.821507194922388,-1656464.0146563367,5091030.968814486,3599857.8610849213,-184.7202353513464,-5260.977659678962,7344.035885764231,0.9949687601670737,-3.4526389973616714e-05,0.0003282934225812119,0.10018511527643888
1.19,4.952415615376255e-06,0.0005294663727921049,-0.007143814935484032,-48.112371498965274,52.01602302887594,4.808453153514202,-1656464.9374996035,5091004.663921048,3599894.581727308,-184.4170713833614,-5260.979715485139,7344.22106900834,0.9949705526459686,-3.464248438365238e-05,0.0003296289260285487,0.10016730760105988
1.195,-1.0886298546079135e-05,0.0005460479194331233,-0.007148557827079491,-48.11354507169738,51.98100568068349,4.812704508700781,-1656465.8588273593,5090978.359017221,3599931.3032953343,-184.11403093542893,-5260.98181483419,7344.406141382746,0.9949723409922978,-3.476864068151956e-05,0.0003309465560760831,0.10014953782132613
1.2,4.207525088272814e-06,0.0005313838526929984,-0.007149076549942507,-48.095432422530116,51.959552656430574,4.812478520900193,-1656466.7786400842,5090952.0541031305,3599968.0257884157,-183.81105898911056,-5260.983821832119,7344.591091319471,0.994974130191658,-3.493835018418131e-05,0.0003323014654560669,0.10013175622349427
1.205,-5.439432830065263e-06,0.000545886288492267,-0.007136799335878394,-48.07602974146318,51.93363682181211,4.800056091290391,-1656467.6969382616,5090925.749179014,3600004.7492060876,-183.50821198779457,-5260.985824767143,7344.775977295379,0.9949759192147604,-3.5066844349560504e-05,0.0003336236771940476,0.10011397329194968
1.21,-1.5634320632505318e-05,0.0005244012141607991,-0.007136642567318237,-48.06542014597525,51.912770422544924,4.798827440246049,-1656468.6137225118,5090899.444244792,3600041.473547901,-183.2054880624607,-5260.987864080748,7344.960748130263,0.9949777048330317,-3.522295423199766e-05,0.0003349795493490992,0.10009622087390428
1.215,6.466781597886343e-06,0.0005429219152315055,-0.007149379255770986,-48.0625029871699,51.86981312477272,4.794993782638795,-1656469.5289933644,5090873.139300408,3600078.1988133923,-182.90285305995633,-5260.989889245984,7345.145448377294,0.9949794901106546,-3.539904675017249e-05,0.0003362794273115054,0.10007846882419859
1.22,-8.118504930701438e-06,0.0005466262008371386,-0.007128270243604896,-48.03823963765347,51.85144289655469,4.808535464952809,-1656470.4427512689,5090846.834346075,3600114.92500195,-182.60030872587066,-5260.9918440445035,7345.329974653159,0.9949812782422708,-3.552480841466097e-05,0.00033763090294435156,0.10006068504032165
1.225,6.311458160376202e-06,0.0005325707237804552,-0.007120965679960225,-48.03644781564925,51.829217252209276,4.791002939858149,-1656471.3549968635,5090820.529382064,3600151.652113119,-182.29792906715457,-5260.993760155701,7345.514493041927,0.9949830607702436,-3.5687759101102085e-05,0.00033898794604642714,0.10004295374404976
1.23,7.822389992150035e-06,0.0005360902642200788,-0.00713372212916587,-48.01738550380181,51.7953216091654,4.79881645073887,-1656472.2657306367,5090794.224408401,3600188.380146558,-181.99558024305372,-5260.995705180886,7345.698882440116,0.9949848411670192,-3.581129428504978e-05,0.0003403136363284209,0.10002524057467481
1.235,8.4539459885861e-07,0.0005299275776677264,-0.007113551242508203,-48.00503773602023,51.76756405629774,4.798389401661812,-1656473.1749530705,5090767.919425169,3600225.109101715,-181.69339320971102,-5260.997587735349,7345.8831805278205,0.9949866244331754,-3.593196203207214e-05,0.00034164845791146006,0.10000749564057933
1.24,8.841675802922448e-06,0.000507300787843419,-0.007119398940337848,-47.99207930463616,51.739370246469896,4.795719196145062,-1656474.082664844,5090741.6144325975,3600261.8389781257,-181.39131625305288,-5260.999440665295,7346.067383678818,0.9949884023435276,-3.606842679486906e-05,0.00034296620734116805,0.09998980085550627
1.245,1.1918277329495489e-05,0.0005136029327037427,-0.007135205970556789,-47.97340719871758,51.72340907322903,4.790671282730853,-1656474.9888665096,5090715.309430813,3600298.569775296,-181.08934998834474,-5261.001273042841,7346.251484312095,0.9949901814191628,-3.6179349921913555e-05,0.00034422967151721996,0.09997209148782103
1.25,3.224795400580134e-06,0.0005370653858370539,-0.0071078230912618124,-47.966792455555044,51.69408133577877,4.791218016535995,-1656475.8935586223,5090689.004419796,3600335.3014928317,-180.78749506293303,-5261.003134058025,7346.435530162417,0.9949919641227866,-3.6284208766267105e-05,0.00034550957952006163,0.09995434276541533
1.2550000000000001,-1.9722301039628787e-05,0.0005231967804012479,-0.007095060287936957,-47.96484585137916,51.65000299003618,4.783721831725906,-1656476.7967416812,5090662.699399595,3600372.034130339,-180.4857285266656,-5261.004946272974,7346.619472676017,0.9949937396456551,-3.6416531743229084e-05,0.000346845679899356,0.09993666213089701
1.26,1.8007494142736128e-05,0.000529902718792478,-0.007120425681554473,-47.94026212695851,51.63298243439145,4.781786381271472,-1656477.6984161164,5090636.394370484,3600408.7676870846,-180.18404552127714,-5261.006697879421,7346.803225573024,0.994995511674418,-3.6602459229819705e-05,0.0003481415502511243,0.09991901323313779
1.2650000000000001,-7.696838475636459e-06,0.0005305177149756939,-0.007107553093401936,-47.923494684688606,51.609958723621176,4.781454220576511,-1656478.5985824957,5090610.089332551,3600445.5021624807,-179.8825062418273,-5261.008475489951,7346.986932895337,0.9949972897211125,-3.669623146638007e-05,0.0003494635239275324,0.09990130117407171
1.27,-1.8777964596623693e-05,0.0005219546036081196,-0.007123799103497052,-47.9122714551944,51.5802807554212,4.764870451156391,-1656479.4972414826,5090583.784285755,3600482.237556234,-179.58108846163233,-5261.010242971112,7347.170568362936,0.9949990642334682,-3.6854085395534566e-05,0.0003507806087318809,0.09988362112610691
1.2750000000000001,-3.899573997564842e-06,0.0005202002719458905,-0.007095090992357414,-47.90174109704141,51.56011806713441,4.765369066280675,-1656480.3943935996,5090557.479230053,3600518.973867792,-179.27975833151737,-5261.012037736532,7347.354054899862,0.9950008424924914,-3.703737954879432e-05,0.00035207362415078537,0.09986590064495479
1.28,7.555493254894043e-06,0.0005449017576384916,-0.0070935801551148805,-47.89253089963615,51.52648023551367,4.769204404664517,-1656481.2900392893,5090531.174165427,3600555.7110966253,-178.97851762407836,-5261.013812956642,7347.5374783654115,0.99500261327102,-3.718320039914258e-05,0.00035336599282204237,0.09984825153063881
1.285,2.8891725705755646e-05,0.0005267009493274769,-0.0070970545207717315,-47.871709639579045,51.49470080149778,4.771714913217124,-1656482.1841790555,5090504.86909209,3600592.4492423018,-178.67738882118897,-5261.015521751073,7347.720792232574,0.9950043833369028,-3.730669134880006e-05,0.0003547226660500879,0.09983060613053919
1.29,7.637723076571244e-06,0.0005430943287306803,-0.007096271139895463,-47.865537116884575,51.46467005823977,4.760314714449238,-1656483.076813575,5090478.564010292,3600629.188304307,-178.3764190063273,-5261.017197320336,7347.904009902168,0.9950061539731724,-3.7372568761396264e-05,0.00035603938915426615,0.09981295203910251
1.295,-5.198799864858793e-06,0.000537132033473929,-0.0070969068284487255,-47.84939658594566,51.44176444611501,4.7575501702112435,-1656483.9679434262,5090452.2589201275,3600665.928282051,-178.0755214359613,-5261.018868533564,7348.087087540864,0.9950079240824085,-3.749540580239092e-05,0.00035739158744054015,0.09979529988212772
1.3,-1.8328514221332092e-05,0.0005064088671552721,-0.007090292720354514,-47.84164717051405,51.41544298613558,4.749300128925883,-1656484.8575690778,5090425.953821611,3600702.6691749855,-177.77473916386717,-5261.0205381308,7348.270086424478,0.9950096940393625,-3.764868698198581e-05,0.0003587257516648761,0.09977764612429965
1.305,-1.1518205937763642e-05,0.0005416437718650013,-0.0071016314162838205,-47.81561298434777,51.38413809046045,4.7495645368482755,-1656485.7456910096,5090399.648714758,3600739.410982628,-177.474033591413,-5261.02220272797,7348.452970427716,0.9950114620581622,-3.782695898766784e-05,0.00035998021664754076,0.09976000880234273
1.31,1.3832949585930272e-05,0.000546013783677362,-0.007093634027611866,-47.79662283353736,51.34990285921608,4.745541277715423,-1656486.63230986,5090373.343599615,3600776.153704449,-177.17350661290422,-5261.023854735172,7348.635758084444,0.9950132325589216,-3.799708793464878e-05,0.0003613240267701855,0.09974234323402725
1.315,-1.3303537683719852e-05,0.0005243841288776095,-0.007073690317615219,-47.786742945532495,51.3309969453061,4.742022536291074,-1656487.5174264426,5090347.038476253,3600812.8973398935,-176.873126373061,-5261.0254898708845,7348.818419749394,0.9950150007488233,-3.810523749550628e-05,0.00036268502954617954,0.09972469750457703
1.32,-3.3092927526652467e-06,0.0005138769962352899,-0.007080968818130812,-47.76905850373541,51.29553763904021,4.745560311153205,-1656488.4010413215,5090320.733344722,3600849.6418884723,-176.57282517970083,-5261.027122721189,7349.001011637844,0.995016763669716,-3.827547946393021e-05,0.00036398546408525524,0.09970710138106498
1.325,-1.4782004168626492e-05,0.0005340157995771743,-0.007075318075477155,-47.76882516578514,51.268033779297085,4.738628361632541,-1656489.2831550762,5090294.428205157,3600886.3873497327,-176.27267672325056,-5261.028703392083,7349.183492575034,0.9950185281022513,-3.841824785100747e-05,0.0003652622521234907,0.09968948711250719
1.33,-1.791640497874901e-05,0.0005059510684709176,-0.007079252784878147,-47.75077362065656,51.23696929827612,4.7365937560307065,-1656490.1637682053,5090268.123057758,3600923.1337230923,-175.972574984391,-5261.030255753121,7349.365851287767,0.9950202907937212,-3.8594569034490944e-05,0.00036658627752380745,0.09967188687758907
1.335,3.642456778069603e-06,0.0005212686960114882,-0.007070763324057394,-47.73445354965691,51.22067097358342,4.7407427470897785,-1656491.0428811745,5090241.817902648,3600959.8810079745,-175.67261259430248,-5261.0317887335605,7349.5481016173135,0.9950220541778835,-3.877169763110472e-05,0.00036783970895772837,0.09965427682909121
1.34,-2.5183419613479047e-05,0.0005375271890392491,-0.007073117048880477,-47.714943842657725,51.18814526509099,4.724761522439349,-1656491.9204946142,5090215.512739904,3600996.629204027,-175.37276327531484,-5261.033308411122,7349.7303194053975,0.9950238151220886,-3.8899005719085546e-05,0.0003691366156238345,0.09963668784594384
1.345,-1.133670021274637e-05,0.0005166458068040003,-0.007052476950660355,-47.70065783101825,51.15527902128789,4.731499630141895,-1656492.7966091335,5090189.207569475,3601033.378310788,-175.07304454021457,-5261.034863263139,7349.912385049029,0.9950255763220128,-3.9102071906695306e-05,0.0003704667856272949,0.09961909300146748
1.35,-1.403338038918343e-05,0.0005231769861416756,-0.007068424840075748,-47.68269209855382,51.125168577793154,4.73085668343354,-1656493.6712254018,5090162.9023914365,3601070.1283276416,-174.77346271853645,-5261.036352305614,7350.094356407551,0.9950273320903106,-3.926547390519186e-05,0.0003717484622528665,0.0996015494585406
1.355,6.968092039591878e-06,0.0005191730509694116,-0.007050187006155041,-47.66392230462652,51.09716890753393,4.723708528667902,-1656494.5443441083,5090136.59720601,3601106.8792541004,-174.47401989033492,-5261.037818462326,7350.276227014972,0.9950290915116646,-3.94372251780256e-05,0.00037304571246755724,0.09958396621481364
1.36,1.0274804120897175e-05,0.0005065248300082784,-0.007028162371405298,-47.66316174577606,51.07685089042868,4.720726268559691,-1656495.4159659268,5090110.292013229,3601143.6310896375,-174.17470753970235,-5261.0392938749665,7350.457987927901,0.9950308460867302,-3.9555719920124406e-05,0.0003743382328084084,0.09956642828864772
1.365,5.148125418907287e-06,0.0005151275879082931,-0.007042180972516313,-47.65255368412246,51.03597125472853,4.70697272464741,-1656496.2860912867,5090083.986813136,3601180.3838337758,-173.87543641968207,-5261.040742935189,7350.639667234569,0.9950325948818883,-3.966281999158464e-05,0.00037560011487948724,0.09954894511761705
1.37,1.690882440786225e-05,0.0005234737761302,-0.007035659634596565,-47.6277906210736,51.00684318734828,4.712575913860431,-1656497.154720562,5090057.681605827,3601217.1374858418,-173.57627365870292,-5261.042180903046,7350.821159301506,0.9950343468478803,-3.9784827233879356e-05,0.00037688211961636893,0.09953142704717828
1.375,8.506623522492852e-06,0.0005121897162268267,-0.007030085164592397,-47.60808254501222,50.978327077233324,4.703875237365888,-1656498.0218544626,5090031.376391406,3601253.8920451845,-173.2772866374566,-5261.043587472292,7351.002577614439,0.9950360968746774,-3.987964934077782e-05,0.0003781878131422864,0.09951392515622724
1.3800000000000001,9.527140505614722e-07,0.0005167997616560314,-0.007044864346320181,-47.6029783169613,50.96432080617719,4.710791415287136,-1656498.8874937622,5090005.071169913,3601290.6475113295,-172.97843319576455,-5261.045010051257,7351.183880514566,0.9950378452151946,-3.9992560094966615e-05,0.0003794633466491474,0.09949643711041237
1.385,-2.4347219857992485e-05,0.0005467528446958064,-0.007021366049378334,-47.593382391736434,50.91883829404589,4.708635993982622,-1656499.7516389498,5089978.76594141,3601327.4038839275,-172.67964186470465,-5261.04639063406,7351.365158648563,0.9950395969171243,-4.0125422629357346e-05,0.00038074846751675847,0.09947891227572729
1.3900000000000001,2.4379407337609365e-06,0.0005118994252136932,-0.0070319817613373,-47.57566165467435,50.88362269981543,4.702623461201178,-1656500.6142904982,5089952.46070618,3601364.1611624802,-172.3809774526982,-5261.047701752264,7351.546262444245,0.9950413424346584,-4.03286481243017e-05,0.0003821018098576008,0.099461445885529
1.395,-1.431842987064273e-05,0.0005117702748092701,-0.006997392503081385,-47.55226747870099,50.859174742516444,4.698949611627421,-1656501.4754490745,5089926.1554644285,3601400.91934621,-172.08245309402216,-5261.048998799992,7351.72722945133,0.9950430903190174,-4.045658646336942e-05,0.00038337510975328516,0.09944395303471008
1.4000000000000001,1.6820187215584034e-05,0.0005272140481168116,-0.007019250988655091,-47.555843090701664,50.83755472261826,4.699314258338035,-1656502.3351154022,5089899.850216159,3601437.6784345703,-171.7840780038479,-5261.050308936797,7351.908114600629,0.9950448292949303,-4.062614280705335e-05,0.00038464392595400444,0.0994265462137246
1.405,-7.52220245149633e-06,0.0005446811746258,-0.007019936190901042,-47.52760951088735,50.798947649395345,4.6970677321539185,-1656503.1932899253,5089873.544961467,3601474.438427153,-171.48573120181015,-5261.051567609561,7352.088918554888,0.9950465733853008,-4.072209816040772e-05,0.00038595889794572634,0.09940908495510489
1.41,1.021423898790642e-05,0.0005314970388593096,-0.007024766818616474,-47.51145732708169,50.77409072052504,4.691253976850563,-1656504.0499732096,5089847.239700521,3601511.199323427,-171.1875825315381,-5261.052811004043,7352.2695910603215,0.9950483173183982,-4.0882949668512746e-05,0.00038731127162237606,0.09939162198288116
1.415,-7.826656544073527e-06,0.0005020209497525541,-0.007012531175610865,-47.491790141585476,50.74911266734842,4.693227982060845,-1656504.9051660374,5089820.934433343,3601547.961122825,-170.88954858404153,-5261.05406012834,7352.45016811886,0.9950500621578997,-4.099640831922468e-05,0.0003886352546891602,0.09937414694724789
1.42,2.578256861538723e-05,0.0004981656070538488,-0.007009594093290158,-47.47602162448099,50.71031074143494,4.682407838330872,-1656505.7588690473,5089794.629159965,3601584.72382493,-170.591655358139,-5261.055291189758,7352.630673892608,0.9950518036764018,-4.11474111517626e-05,0.00038988143143243396,0.09935670233909548
1.425,-1.75604760458523e-05,0.0005125383785866842,-0.007019260437875555,-47.461951529007486,50.68502416910918,4.689921927463046,-1656506.6110829196,5089768.32388045,3601621.4874291476,-170.29389359073716,-5261.0565148547075,7352.811013190089,0.9950535441653157,-4.1213846173184865e-05,0.00039112636594763645,0.0993392649742735
1.43,2.639101582493359e-07,0.0005210282310029911,-0.006999118984265525,-47.454735339867334,50.6474325088558,4.674204514014013,-1656507.4618082913,5089742.018594947,3601658.251934908,-169.996255051929,-5261.057686461612,7352.991290822353,0.9950552867287444,-4.139168171067759e-05,0.00039239628937360514,0.09932180357331906
1.435,-3.958408709048508e-06,0.0005429869212506146,-0.006997979490081685,-47.43244233894426,50.620823016724266,4.6800095489260265,-1656508.3110456816,5089715.713303592,3601695.0173416003,-169.69870110881214,-5261.05885527412,7353.171386207238,0.9950570239772766,-4.152726492112861e-05,0.00039369176031944157,0.09930439222798705
1.44,-1.5100221409936214e-05,0.0005217847857501157,-0.007026628898946723,-47.41773721939557,50.58788764425697,4.68056673350418,-1656509.1587957032,5089689.4080064725,3601731.783648607,-169.4013074598031,-5261.059992504204,7353.35141646636,0.9950587606144949,-4.167880210339177e-05,0.0003950408083977561,0.09928698368861016
1.445,-7.471116162451084e-06,0.0005060546529703558,-0.00700452773205725,-47.400291534337654,50.55717389045616,4.665732839266813,-1656510.0050590832,5089663.10270377,3601768.5508554857,-169.10404459920605,-5261.061088746972,7353.5313350231245,0.9950605040752009,-4.185282172260064e-05,0.00039633434434965955,0.09926950386214317
1.45,9.217438946063992e-06,0.0005197524866988078,-0.006996227200909016,-47.38239168323239,50.525008973235245,4.671274275551602,-1656510.8498364475,5089636.79739551,3601805.3189615984,-168.80690109247266,-5261.062215420024,7353.711110105716,0.9950622417596214,-4.200393707075682e-05,0.0003975906447505841,0.09925207897905777
1.455,1.4869194045061441e-05,0.0005255375431393434,-0.006993164145525113,-47.37218157745184,50.49875333845607,4.666911949618354,-1656511.6931284694,5089610.492081746,3601842.0879663564,-168.50990771642552,-5261.063289794367,7353.890793131409,0.9950639770661593,-4.2116927623996986e-05,0.00039888516232803114,0.09923467469624621
1.46,-1.497742507777227e-05,0.0005049282910377696,-0.006966367035887455,-47.355803261107006,50.463715837481416,4.675097001063511,-1656512.5349357554,5089584.18676265,3601878.857869275,-168.21300666640366,-5261.064348742927,7354.070374140166,0.9950657113016435,-4.221729066046188e-05,0.00040019547348371193,0.0992172779965156
1.465,-7.14940606283839e-06,0.0005159022015443728,-0.0069826886522301075,-47.33317088128445,50.439995465036894,4.665195052723895,-1656513.3752589158,5089557.88143844,3601915.6286698543,-167.91625743490573,-5261.065335189085,7354.249857570584,0.9950674386031223,-4.238676325730724e-05,0.00040144711519410543,0.099199947960659
1.47,5.11838206326383e-06,0.0005255769591974579,-0.006984842270275625,-47.31541245215501,50.40446075479227,4.6478414697315795,-1656514.2140986708,5089531.576109204,3601952.400367608,-167.61964461258736,-5261.066359246655,7354.429243861223,0.9950691696380285,-4.2539500233154175e-05,0.00040272799585248925,0.09918257728268975
1.475,-8.34140932770277e-06,0.0005042653885063675,-0.006978321716192054,-47.30206684288209,50.37635531951992,4.646023825908336,-1656515.051455677,5089505.270774773,3601989.172961868,-167.3231578530849,-5261.067413121553,7354.608460209622,0.9950709008934873,-4.266412003840918e-05,0.0004040359856681603,0.09916520120344079
1.48,1.5030314732030627e-05,0.0005342418398264622,-0.006976727257660162,-47.279479068332876,50.337616310289825,4.654580336771065,-1656515.8873305316,5089478.965435131,3602025.94645196,-167.02678403503353,-5261.068443652939,7354.787576663321,0.9950726302477179,-4.281693344561898e-05,0.0004052876228886421,0.0991478413307204
1.485,-7.744387594022692e-06,0.0005276529135956296,-0.006963915576209855,-47.2715892307224,50.313574543931935,4.650641146555577,-1656516.7217239842,5089452.660090511,3602062.720837368,-166.73059694391267,-5261.0694043800395,7354.966586525979,0.9950743588743932,-4.291903406796424e-05,0.00040661962516140863,0.09913048536727907
1.49,-1.7402288679784887e-05,0.00050672630202162,-0.006966084007388996,-47.25207700168172,50.27704959338701,4.651392105060873,-1656517.5546366973,5089426.354741129,3602099.496117591,-166.4344883029836,-5261.070348295237,7355.1455026143085,0.9950760840263351,-4.3076145050640904e-05,0.00040792959333754963,0.09911316126885893
1.495,4.656725903830187e-06,0.0005413720724881245,-0.006952120842803258,-47.23455521287208,50.253615666286855,4.641305521672934,-1656518.3860692645,5089400.049387129,3602136.272292089,-166.1385385824585,-5261.07125192848,7355.324296755712,0.9950778094325109,-4.3252098841012366e-05,0.00040918510916629694,0.09909583175794029
1.5,1.5490446613592387e-05,0.0005082243960359341,-0.006969693818484115,-47.22408248529364,50.219368778501384,4.647707488212773,-1656519.2160223648,5089373.744028538,3602173.0493603065,-165.84270153739686,-5261.072184082156,7355.502990191868,0.9950795310434989,-4.338174537326374e-05,0.0004105322793647708,0.09907853692663293
1.5050000000000001,-1.0349458150325958e-05,0.000498150707081286,-0.006965096238689782,-47.198264036971956,50.1854322222887,4.639395177386385,-1656520.0444965838,5089347.438665478,3602209.8273217306,-165.5469860007831,-5261.073040416117,7355.681579362583,0.9950812567393794,-4.347624833545576e-05,0.00041179966956949915,0.09906119834135498
1.51,-9.67598328770534e-06,0.0005102124979855293,-0.006985205094558488,-47.1903060486353,50.14852034940271,4.634469960270972,-1656520.8714926522,5089321.133298099,3602246.606175771,-165.25144142090025,-5261.073910998334,7355.86003688264,0.9950829810007306,-4.3632533784164756e-05,0.0004130356004708576,0.09904387119097532
1.5150000000000001,2.0561742275609777e-05,0.0005068490221127764,-0.006954998685975772,-47.17164272473916,50.12282184744563,4.623740028600762,-1656521.697011249,5089294.827926474,3602283.3859217274,-164.95599722951732,-5261.074739179105,7356.0383455438,0.9950847099246808,-4.379015119147211e-05,0.0004143017020184777,0.09902649398335925
1.52,-1.518111786799992e-06,0.0005179296979687604,-0.006949350254858869,-47.14680834839674,50.08846804330506,4.619935574357074,-1656522.521052927,5089268.522550637,3602320.1665589497,-164.66067404540794,-5261.075595516119,7356.21654342985,0.9950864310735799,-4.387168187001391e-05,0.00041556692522782586,0.09900919185940209
1.5250000000000001,-2.6774251342228576e-05,0.0005468141593923243,-0.006946699713183878,-47.13775853706587,50.057402531445575,4.62533630848474,-1656523.3436184218,5089242.217170535,3602356.948086858,-164.36552390243236,-5261.076445324466,7356.394619734436,0.9950881505081991,-4.401087779683598e-05,0.0004168542492346806,0.09899190377879039
1.53,5.2254474901903614e-06,0.0005255704938390955,-0.006950337371397854,-47.120456325769595,50.026585060577396,4.620518725149514,-1656524.1647084362,5089215.911786352,3602393.7305049086,-164.07048186014075,-5261.077227669035,7356.572600689369,0.9950898689519793,-4.4220049480631926e-05,0.0004182071794865511,0.09897462228508401
1.5350000000000001,-2.1238917937081878e-05,0.0005032047499849058,-0.006941361359514908,-47.095079751856034,50.00308587793181,4.614940375068017,-1656524.9843235693,5089189.606398283,3602430.513812574,-163.77557140146348,-5261.07800023016,7356.750465440721,0.9950915880195259,-4.434436205451864e-05,0.0004195151787136639,0.0989573316807329
1.54,-9.880240962645958e-07,0.0004951324288494962,-0.006929744324418387,-47.085050698969745,49.96521613181821,4.611652688034465,-1656525.8024645348,5089163.301006284,3602467.298009358,-163.4808147554925,-5261.078799327079,7356.928248177005,0.9950933045852921,-4.452896823378393e-05,0.00042076099179227857,0.09894006340649905
1.545,-4.419991272238796e-06,0.0005158141838753585,-0.006920977918156712,-47.069107486038405,49.93010755488612,4.615074920242269,-1656526.6191320005,5089136.995610407,3602504.0830946895,-163.18617153997695,-5261.079551534771,7357.105884360841,0.9950950179876152,-4.466118666737473e-05,0.0004219917333170032,0.09892282398204712
1.55,1.5595809207389023e-05,0.0005307958996145591,-0.00691775084386914,-47.05131563240657,49.88710597456236,4.609971230864323,-1656527.4343266094,5089110.690210906,3602540.8690679222,-162.8916719976254,-5261.080248813114,7357.28340877964,0.9950967288998688,-4.4807048416958004e-05,0.000423273077722113,0.09890560633761415
1.555,-2.6434238348887103e-05,0.000495707662114386,-0.0069303729830583315,-47.03453831458224,49.8589394758913,4.590912428423756,-1656528.2480491083,5089084.384808008,3602577.6559283617,-162.59732754389822,-5261.080910324793,7357.460767010244,0.9950984387010996,-4.490681703335393e-05,0.00042459664218934376,0.09888839666868483
1.56,-1.1748590595333491e-06,0.0004986772238999546,-0.006912004943014269,-47.012775954544196,49.83549392010947,4.590952340546689,-1656529.0603001502,5089058.079401674,3602614.443675228,-162.30308924268974,-5261.081623109478,7357.6379795012435,0.9951001513554993,-4.510248457238171e-05,0.00042582252377568495,0.09887115561783746
1.565,-9.108119384308956e-07,0.0005137717952101427,-0.00692552197570741,-46.9917659848152,49.79706943060635,4.59531114560587,-1656529.8710803622,5089031.773991784,3602651.232307984,-162.00899557621477,-5261.082333038729,7357.81512286509,0.9951018591699464,-4.523602752366072e-05,0.0004270620383934942,0.0988539602051094
1.57,1.0411808620721732e-05,0.0005085763391626715,-0.006908835545329337,-46.98001790609023,49.762507256147416,4.597705378088462,-1656530.6803905398,5089005.468578484,3602688.02182616,-161.71507540976188,-5261.082987004034,7357.992147679877,0.9951035700095261,-4.5372658403795255e-05,0.0004283391681994005,0.09883673113359769
1.575,-2.5865598754347813e-05,0.0004984765399333092,-0.006901932047001479,-46.95211518892802,49.73252784867106,4.590610471790876,-1656531.4882314226,5088979.163162059,3602724.812229171,-161.42127774315162,-5261.083582728294,7358.169056636258,0.9951052764336654,-4.547981969657626e-05,0.00042960617245414164,0.09881954353264832
1.58,9.621577568148108e-06,0.0004819603212916498,-0.006902068810377803,-46.933925031436296,49.70044161649259,4.58678915462657,-1656532.2946037538,5088952.8577426,3602761.60351645,-161.1276547544599,-5261.084201104547,7358.345854930674,0.9951069808608781,-4.567472801610152e-05,0.0004308390891642401,0.09880237311647111
1.585,-1.0937586185869986e-05,0.0005280088765204249,-0.006886431909418387,-46.92118383576941,49.66783630751228,4.581465089866684,-1656533.0995083177,5088926.5523200855,3602798.3956874255,-160.83417075329018,-5261.084804585704,7358.522535215738,0.9951086850459384,-4.577727302306229e-05,0.000432039682761723,0.09878520229415558
1.59,-2.2201341907264158e-05,0.0005012729019360672,-0.006905250048743947,-46.912404669321475,49.63647051548384,4.5787387006318,-1656533.9029457453,5088900.246894607,3602835.18874148,-160.54080025856527,-5261.085386746458,7358.6990867545965,0.9951103850199686,-4.594231992259491e-05,0.0004333497589599269,0.09876807036031225
1.595,6.810748880056323e-06,0.000540152960700879,-0.006888589550433605,-46.88993064556458,49.60427597394384,4.57021244444744,-1656534.7049165624,5088873.94146631,3602871.982677994,-160.24752659546206,-5261.085932077086,7358.875518626077,0.9951120893708469,-4.6128807244645196e-05,0.00043459053850380134,0.09875089159690979
1.6,-2.9813993305029024e-06,0.0005061716965368781,-0.006912977193880022,-46.87061172801567,49.572886727376265,4.5757868430481485,-1656535.505421392,5088847.636035256,3602908.7774963463,-159.95440529044714,-5261.086489523331,7359.051822357223,0.9951137892721965,-4.625269934715285e-05,0.0004359352073049143,0.09873375421563475
1.605,-4.485557482556031e-06,0.0005087496060108399,-0.006888219948606056,-46.85186026120441,49.53630843957288,4.568809033627853,-1656536.3044610023,5088821.330601535,3602945.573195997,-159.6614388618394,-5261.086998848066,7359.228038109879,0.9951154949312759,-4.639259102419763e-05,0.00043719291805529426,0.09871655614820482
1.61,-9.899342709130881e-06,0.0005204836808352187,-0.0068859098676206315,-46.838214236883246,49.50410243448486,4.572158566065521,-1656537.1020361441,5088795.025165297,3602982.369776366,-159.36861786947446,-5261.08749645924,7359.404109219966,0.9951171941797252,-4.653683386169225e-05,0.0004384566736271192,0.09869941964337754
1.615,-2.6520957719296206e-05,0.0005004054665083941,-0.006876499062715365,-46.81565704076733,49.46467692104121,4.563975697978012,-1656537.898147501,5088768.719726702,3603019.1672368343,-159.07592483632288,-5261.087941281365,7359.580078160677,0.9951188925480252,-4.66974378960189e-05,0.0004397482854423795,0.09868228886069992
1.62,-1.777837456942551e-05,0.0005259168104745941,-0.00690211660323893,-46.7996958151278,49.43714088461448,4.553765916599069,-1656538.6927958077,5088742.414285898,3603055.965576756,-158.78339782410436,-5261.088380296543,7359.755890564731,0.9951205883186359,-4.68944293679232e-05,0.00044098584705188785,0.09866518148144861
1.625,-5.5879120395769875e-06,0.0004925197448129854,-0.006876267014485462,-46.77061455677285,49.39833546820714,4.550443260164339,-1656539.4859817608,5088716.108842859,3603092.7647954416,-158.4909833952046,-5261.088835440673,7359.931583691792,0.9951222900842078,-4.70759919605102e-05,0.0004422890291569736,0.09864801032878198
1.6300000000000001,4.882286038382632e-06,0.0004966414317820098,-0.006880716457649697,-46.76291275772961,49.366378434388366,4.552222268227224,-1656540.2777061427,5088689.80339757,3603129.564892255,-158.19876942696666,-5261.08928037195,7360.107141689262,0.9951239852163153,-4.721896206891563e-05,0.00044351213517341187,0.09863090344589917
1.635,-5.875469482792245e-06,0.0004903867475436966,-0.00685855818319567,-46.74446660157823,49.332355659010126,4.546284995951985,-1656541.067969702,5088663.497950201,3603166.3658665824,-157.90665420780797,-5261.08966712172,7360.282589261439,0.9951256811464303,-4.7336905547920756e-05,0.00044474807621942077,0.09861378545223468
1.6400000000000001,6.05229003587534e-06,0.0004989811181482156,-0.006875386407361257,-46.71799249345079,49.29167346735732,4.54954239846615,-1656541.8567730368,5088637.192500925,3603203.167717818,-157.61467976517048,-5261.090043244048,7360.457905155979,0.9951273713244205,-4.7480045677515914e-05,0.0004459658071060656,0.09859672256770513
1.645,-1.2686360277735395e-05,0.0004894279458934533,-0.0068652087354277025,-46.70565246665494,49.26682618473961,4.539546404207898,-1656542.6441170007,5088610.887049884,3603239.9704453177,-157.3229058026514,-5261.090373528816,7360.633094486432,0.9951290653474567,-4.759564889707989e-05,0.0004472078571916392,0.09857961777408152
1.6500000000000001,-1.6508366484299995e-05,0.0004922186116843251,-0.00686173483712243,-46.684984229724485,49.232817246191004,4.542410693859611,-1656543.4300023243,5088584.581597155,3603276.7740484867,-157.03122361817853,-5261.090717839643,7360.808173111958,0.995130756575577,-4.775550479244839e-05,0.00044842152363472695,0.09856253829355548
1.655,3.279751298433864e-06,0.00048693195185192385,-0.0068494684455668985,-46.66165314946815,49.208292036778516,4.542741965975333,-1656544.2144296418,5088558.276142807,3603313.5785267856,-156.73970343373455,-5261.091021392364,7360.983146476941,0.9951324466496356,-4.79255529067896e-05,0.00044964119128668644,0.09854546743027123
1.6600000000000001,7.420906490422931e-06,0.00049140962402692,-0.006843553409683395,-46.643106176884615,49.16235010209956,4.536188070083313,-1656544.9973997432,5088531.97068695,3603350.383879772,-156.44833706643115,-5261.091321445991,7361.158048191003,0.995134133416207,-4.804505528230049e-05,0.0004508525830320214,0.0985284270329921
1.665,4.033132647467035e-06,0.0004925858949404386,-0.006822580008498796,-46.626540056763616,49.12846708509532,4.531474946232887,-1656545.7789134164,5088505.665229681,3603387.190106813,-156.15713228498782,-5261.091585980519,7361.332768055001,0.9951358184282011,-4.815535140942365e-05,0.00045207613511987854,0.09851140131712982
1.67,-2.908101809347073e-07,0.000489589521404363,-0.006838569604588876,-46.60455859727684,49.08517577449642,4.53350767922673,-1656546.5589714,5088479.359771137,3603423.9972071294,-155.8660610835608,-5261.091831469139,7361.507358618778,0.9951374979812555,-4.827434174634282e-05,0.0004533017816375207,0.09849442775451513
1.675,1.5531380501615198e-06,0.000480222069521549,-0.006858495218583143,-46.58291076729981,49.06040636784423,4.513841192113329,-1656547.3375744857,5088453.054311507,3603460.8051800383,-155.57517317694592,-5261.092020667966,7361.681804860807,0.9951391811827118,-4.8403369668346475e-05,0.00045451890687272145,0.09847741438867567
1.68,1.4459318897114683e-05,0.0004952825455427212,-0.0068177748553289565,-46.57238905030001,49.01913981343067,4.519461901383842,-1656548.114723434,5088426.748850753,3603497.614024853,-155.28440622451228,-5261.092281103384,7361.856121115978,0.9951408690074146,-4.852552654855383e-05,0.00045571317873500326,0.09846035142096404
1.685,1.2882682233313245e-05,0.0005275669217420901,-0.006839984492682859,-46.54186018767496,48.987769647640924,4.514938067809249,-1656548.89041888,5088400.443388918,3603534.423740911,-154.9937720920197,-5261.092452435239,7362.030302048687,0.995142546500858,-4.8619235501873736e-05,0.00045694810050910054,0.09844338971404387
1.69,-2.106877194555354e-05,0.0005011975941539034,-0.006836309985417329,-46.531617685877144,48.954465191812176,4.512014912591104,-1656549.6646616352,5088374.137926192,3603571.2343276055,-154.7033299946445,-5261.092638181455,7362.2043756777475,0.9951442291315344,-4.8724837716705455e-05,0.0004582629503169377,0.09842637272175944
1.695,3.096538701790059e-07,0.0005197654700120485,-0.006813942028178799,-46.504256861238545,48.91399132803183,4.515834911084291,-1656550.4374524457,5088347.832462631,3603608.04578435,-154.41299431111483,-5261.09278618619,7362.378322231595,0.9951459105916332,-4.8908413598566955e-05,0.00045950384293104316,0.09840936488431726
1.7,-2.0620518390485113e-06,0.0004996000570484282,-0.006804185690553951,-46.48379668432974,48.891870790900626,4.499517424186014,-1656551.20879209,5088321.526998445,3603644.8581105187,-154.12286333355877,-5261.0928883155875,7362.552145233242,0.9951475862386248,-4.9043345270321344e-05,0.0004607961921031587,0.09839241263968763
1.705,-2.688710527673674e-06,0.0004991630061759752,-0.006832471318219405,-46.46650962440664,48.84587746108387,4.500440874274777,-1656551.9786813671,5088295.221533594,3603681.671305525,-153.83284752950843,-5261.093052080836,7362.725857373288,0.9951492592187006,-4.917920587251582e-05,0.00046203779003750416,0.09837548464408115
1.71,-1.1641649921183824e-05,0.0005240595590169525,-0.006799726923133867,-46.458309799782114,48.81494353398361,4.500507427347043,-1656552.747120979,5088268.916068094,3603718.4853686867,-153.54299723304874,-5261.093148047521,7362.899407228299,0.995150938865032,-4.931655069251202e-05,0.00046327814291245744,0.09835848624946125
1.715,-1.680752208481975e-05,0.0005003745230570988,-0.006819224237825571,-46.42690171034622,48.780564955978555,4.48372533896501,-1656553.5141115815,5088242.6106022345,3603755.3002993204,-153.25324374314857,-5261.093195796284,7363.072846291172,0.9951526101391087,-4.948225335693948e-05,0.00046457823776514703,0.09834156929745831
1.72,2.8793881113486507e-06,0.0004874065693713886,-0.006796790852825921,-46.41274559030389,48.74233551018445,4.488796599585247,-1656554.2796538803,5088216.305135992,3603792.1160967667,-152.96367578289167,-5261.093301054336,7363.246132176726,0.9951542859435107,-4.965500767091448e-05,0.0004658181344571816,0.09832460381871469
1.725,-5.659481087338059e-07,0.0004954619915571855,-0.00681531729997351,-46.39152470049583,48.71213807907237,4.483788046255337,-1656555.0437486966,5088189.999669405,3603828.9327603383,-152.6742507641948,-5261.093333688493,7363.419296392041,0.9951559559612777,-4.9775569390823015e-05,0.00046703061028078056,0.09830769410171976
1.73,3.0878491201135564e-06,0.000504382413959114,-0.006785600864998271,-46.377890536674336,48.666984765607246,4.480277116657685,-1656555.8063967566,5088163.694202655,3603865.750289452,-152.38497317385543,-5261.093366301867,7363.592349079254,0.9951576302328262,-4.990670411932148e-05,0.00046826227790881965,0.0982907382673746
1.735,-1.6657172490454736e-06,0.0005186038899567432,-0.006780180777655077,-46.33961825122782,48.636724958837036,4.476664612554268,-1656556.567598783,5088137.388735882,3603902.5686833933,-152.09583744159445,-5261.093343050401,7363.765227514246,0.9951592969030667,-5.0030905772531035e-05,0.00046951704001051256,0.09827385633041807
1.74,-5.806593860974739e-06,0.0004745717857592048,-0.006778666242288672,-46.329674589877214,48.600163663854296,4.471447061904175,-1656557.3273556957,5088111.083269152,3603939.387941492,-151.8069276418475,-5261.093348861211,7363.938011835259,0.9951609619366041,-5.0170421436803026e-05,0.0004708060163612434,0.09825698785346909
1.745,-1.5334536619775683e-05,0.0004893572940394023,-0.006764054830463899,-46.313421199172474,48.56312575824586,4.468864034088082,-1656558.085668329,5088084.777802485,3603976.208063144,-151.51812561858668,-5261.093317744898,7364.110649035065,0.9951626263620137,-5.030942124600366e-05,0.0004719844280128951,0.09824012312655653
1.75,-2.3835762215976677e-05,0.00047282379493794716,-0.0067771316143879715,-46.293787210353074,48.534809461213285,4.469172927955735,-1656558.8425373028,5088058.472336063,3604013.0290476405,-151.229463926617,-5261.093251121064,7364.283149603059,0.9951642868935806,-5.047573975652856e-05,0.0004731972862637919,0.09822329473255884
1.7550000000000001,2.2521882388423752e-06,0.0004732444964398417,-0.0067512777132026315,-46.265519590607305,48.49748148250783,4.4726468233868495,-1656559.5979633275,5088032.166870024,3604049.850894414,-150.94094595833764,-5261.093164571615,7364.455559793444,0.9951659503681828,-5.065916407564753e-05,0.00047436692131270353,0.09820643378854955
1.76,-2.7141355374522966e-06,0.0005157521275269305,-0.006764395830955956,-46.25161437654503,48.45883565262827,4.45955351035137,-1656560.3519472687,5088005.8614045065,3604086.6736029605,-150.65263058174963,-5261.093042477743,7364.627858787303,0.9951676072120637,-5.077775640859085e-05,0.0004755440111806124,0.09818963710763295
1.7650000000000001,-1.9109540404758384e-07,0.0004716609276547595,-0.006786072122965204,-46.2291530649825,48.42143201396755,4.459879620624205,-1656561.104489931,5087979.555939606,3604123.4971725657,-150.3644342922357,-5261.0929177377,7364.799983271961,0.9951692669393647,-5.091915465611505e-05,0.0004768256356867528,0.09817280776223349
1.77,2.848690320285308e-06,0.0004939002402700889,-0.006751014303566642,-46.21091739004607,48.39212409186304,4.45313828006069,-1656561.8555920431,5087953.250475417,3604160.3216024805,-150.0764105913813,-5261.092757756263,7364.9719827693225,0.9951709317525699,-5.1043480206261236e-05,0.00047799818101322046,0.09815592446217446
1.7750000000000001,-1.4680153884258478e-06,0.00047065083255944974,-0.006758276825544981,-46.18991327618592,48.34628695478544,4.4492591540038715,-1656562.6052543623,5087926.945012022,3604197.146892105,-149.78851701594738,-5261.092600485981,7365.143867002186,0.9951725876503533,-5.116565838252689e-05,0.0004792268064018917,0.09813912834870349
1.78,1.1078973690752344e-05,0.00048139347187578437,-0.006763064825911595,-46.169848535957314,48.31538755546418,4.447893876588285,-1656563.3534776524,5087900.639549515,3604233.97304072,-149.50079902413302,-5261.092402108996,7365.315578982776,0.9951742450720542,-5.129288072157377e-05,0.0004803965286968132,0.0981223141465933
1.7850000000000001,-4.390781183018271e-06,0.0004756939355652777,-0.006760272870843007,-46.146670715697375,48.27867973038879,4.435107735938683,-1656564.1002627227,5087874.334088047,3604270.800047632,-149.21322907803903,-5261.092185277059,7365.487185692428,0.9951759033712881,-5.139152792685455e-05,0.00048159605508378263,0.09810548798763076
1.79,4.625842203596386e-06,0.0004940702945217529,-0.006738509369967125,-46.11952787001498,48.23880648776197,4.445249024798054,-1656564.8456103373,5087848.028627614,3604307.6279121814,-148.9258168086482,-5261.091987917925,7365.658634099639,0.9951775607048341,-5.152726168461534e-05,0.0004827776074185351,0.09808866876606778
1.795,-6.454178256596823e-06,0.0004828479536416873,-0.00675159064515054,-46.103599679802166,48.20451424833679,4.4333950801153845,-1656565.5895214172,5087821.723168342,3604344.456633713,-148.63861510547693,-5261.091720481062,7365.829978631805,0.9951792123956753,-5.1645042588601934e-05,0.0004840070928403199,0.09807190364955275
1.8,5.248987548671802e-06,0.000497392496942332,-0.00674306712105057,-46.07308063506151,48.17026909659606,4.425243297707069,-1656566.3319967934,5087795.417710393,3604381.286211588,-148.35153537812081,-5261.09145959189,7366.001171401251,0.995180867021467,-5.1787654330657356e-05,0.0004852059392371563,0.098055105974328
1.805,-7.052334554222349e-06,0.0005144046423137497,-0.006742656207306338,-46.061920610807626,48.13235647814825,4.432890076706007,-1656567.0730372514,5087769.112253692,3604418.1166451033,-148.0646478641684,-5261.09122053742,7366.172234711896,0.9951825192570296,-5.190470421883868e-05,0.0004864438416146747,0.09803832946109642
1.81,-4.266022889445191e-06,0.00048510005852858636,-0.006697201456460341,-46.04466689772456,48.08886912519552,4.426823373174692,-1656567.812643602,5087742.806798408,3604454.947933646,-147.7778923781317,-5261.090893109544,7366.34318222911,0.995184171085207,-5.205652835005977e-05,0.00048772105437805093,0.0980215539549367
1.815,-1.1886401924792088e-05,0.0004996324527804816,-0.006735155036834127,-46.014485073182904,48.054918236884944,4.420920665747295,-1656568.5508165543,5087716.501344848,3604491.780076496,-147.49128856768095,-5261.090530894471,7366.513957844615,0.9951858115281818,-5.219418360812195e-05,0.0004889260470702528,0.0980048915109962
1.82,9.88029114520376e-06,0.0004904827819244217,-0.006726819113794023,-45.99895533367426,48.01995553577486,4.415978611587355,-1656569.2875569703,5087690.195893067,3604528.6130729183,-147.20487776482966,-5261.0901815585385,7366.684611129216,0.9951874609694176,-5.235440508968861e-05,0.000490165323666844,0.09798813461953403
