t_s,gyro_x_radps,gyro_y_radps,gyro_z_radps,accel_x_mps2,accel_y_mps2,accel_z_mps2,ins_pos_ecef_x_m,ins_pos_ecef_y_m,ins_pos_ecef_z_m,ins_vel_ecef_x_mps,ins_vel_ecef_y_mps,ins_vel_ecef_z_mps,ins_quat_w,ins_quat_x,ins_quat_y,ins_quat_z
0.0,-9.275125816558325e-06,0.0005685320284194213,-0.007466156189958563,-48.92506560194846,55.548388256051666,5.141586781462644,-1653639.850072476,5089380.142985015,3585590.067023642,-258.4057955714953,-5260.056020287632,7298.290012616031,0.9945218953682734,0.0,0.0,0.10452846326765353
0.005,2.2195470524005033e-05,0.0005659626204873387,-0.007475037473136351,-48.93060145003169,55.54434358148893,5.137022500647476,-1653641.1413163082,5089353.84269147,3585626.558967298,-258.0917372258672,-5260.061397861819,7298.487449877341,0.9945238462586069,-1.7163023737958794e-07,1.4111200895002564e-06,0.10450990010982743
0.01,-1.1262928244585881e-07,0.0005827518870977662,-0.007486522053673397,-48.94105979432772,55.538978358482495,5.1436115535454014,-1653642.4309898058,5089327.542371023,3585663.05189808,-257.7776618584904,-5260.066780718738,7298.684862794892,0.994525799120515,-2.6434353832895257e-07,2.824074303246007e-06,0.10449131483360706
0.015,1.8996739162135622e-06,0.0005790136275069128,-0.0074580629817090896,-48.94390953556721,55.541523573495205,5.1366447504642565,-1653643.7190928708,5089301.242023792,3585699.545815919,-257.4635641816614,-5260.072111693906,7298.882272989365,0.9945277546324861,-4.169077035901691e-07,4.272944398686555e-06,0.10447270096649111
0.02,5.848551769342395e-06,0.0005722963333584791,-0.007477606215472802,-48.949265270010336,55.52780705390356,5.14588293707023,-1653645.0056253972,5089274.941649818,3585736.0407208046,-257.149446358418,-5260.077477992317,7299.0796812009,0.9945297023623502,-5.634919710505472e-07,5.713045591873059e-06,0.10445415782102162
0.025,2.0781417368257197e-05,0.0005529232893170466,-0.00749762883654295,-48.9562965165554,55.53029183055741,5.145647961533144,-1653646.2905873824,5089248.641249189,3585772.5366126695,-256.8353477275877,-5260.08277344878,7299.277064607494,0.9945316548470384,-6.985042033915556e-07,7.1374765759270235e-06,0.10443556604806474
0.03,1.0032681904714556e-07,0.0005688385380264897,-0.007472421880037491,-48.9574006501822,55.52988863182317,5.139203008456382,-1653647.5739787992,5089222.340822084,3585809.0334914834,-256.5212189743178,-5260.088068915128,7299.474460994782,0.9945336122093263,-7.913306868770056e-07,8.517638564307177e-06,0.10441692445524779
0.035,-6.584066158762125e-06,0.000572043947578057,-0.007485088675614959,-48.96864248985589,55.5235657098418,5.136458480254549,-1653648.8557995565,5089196.040368425,3585845.5313572516,-256.2070839573484,-5260.093394544052,7299.671846415283,0.9945355626409482,-9.397312858482226e-07,9.931972584350782e-06,0.10439834549898523
0.04,7.835053651814325e-06,0.0005699342896082657,-0.007485852045283363,-48.96382870855475,55.523473710384195,5.138216350418677,-1653650.1360495486,5089169.739888186,3585882.030209864,-255.89291290645258,-5260.098701308685,7299.869198452469,0.9945375160287695,-1.1055884639650236e-06,1.135253170670407e-05,0.10437973501222719
0.045,-3.324723932189897e-05,0.0005596706734902838,-0.0074711892653693815,-48.972395150251586,55.51393539626765,5.1403280670324865,-1653651.414728761,5089143.439381385,3585918.530049282,-255.5787719817401,-5260.104018820311,7300.0665687935525,0.9945394692655758,-1.2350442605130496e-06,1.277160814771839e-05,0.10436112259029962
0.05,3.281225202273908e-07,0.0005373450679814132,-0.007480081632630565,-48.9779291068034,55.50915238698591,5.139119292769231,-1653652.6918372386,5089117.138848097,3585955.0308754756,-255.26461911092963,-5260.109296517112,7300.2639086190875,0.9945414183273925,-1.4639666868303919e-06,1.4154447215667846e-05,0.10434254658981071
0.055,-1.058175082019286e-05,0.0005655676706775073,-0.00748994252533051,-48.97966790070537,55.50989429479573,5.130756826525891,-1653653.9673749236,5089090.838288444,3585991.5326883234,-254.95045485400829,-5260.114564631272,7300.461230485036,0.9945433693605029,-1.603585431003015e-06,1.5490535244578073e-05,0.10432394844200496
0.06,-7.877014643301194e-06,0.0005856410736915289,-0.007461227262820515,-48.99123516439861,55.50105139364287,5.1413256608432425,-1653655.241341753,5089064.537702353,3586028.0354877496,-254.6362769079063,-5260.119871787219,7300.6585400761005,0.9945453226141546,-1.7776911453335073e-06,1.689394933178259e-05,0.10430532574006648
0.065,-3.343356585149159e-05,0.0005670797216861792,-0.007486177116764435,-48.98560708236084,55.49984372271112,5.138822461833769,-1653656.5137376531,5089038.23708992,3586064.5392737077,-254.3220831404499,-5260.1251012124385,7300.855843031123,0.9945472680296497,-1.95030509657298e-06,1.8347978609327653e-05,0.10428677439785193
0.07,-5.5896811378658435e-06,0.0005716905811478139,-0.0074690643311568095,-49.00299213238307,55.49606927231083,5.133258407849967,-1653657.7845626601,5089011.936451274,3586101.0440461864,-254.00791971088591,-5260.130357278478,7301.053148529179,0.9945492196014528,-2.1816239282090325e-06,1.974919437823644e-05,0.10426816098575371
0.075,6.25812746118848e-07,0.0005644080736075432,-0.007488438463851634,-48.99817176242135,55.48526085061656,5.13679253459661,-1653659.0538166708,5088985.635786383,3586137.5498051024,-253.69368447162745,-5260.135598791568,7301.2504178199,0.9945511663628016,-2.3449135442288266e-06,2.1169132626870532e-05,0.10424959008437443
0.08,3.4668699386377417e-07,0.0005663475055391111,-0.007469259532769197,-48.99823254784076,55.49091313800903,5.133655320212512,-1653660.321499635,5088959.335095338,3586174.056550314,-253.3795012745358,-5260.140819598336,7301.447666908551,0.9945531178242607,-2.490852121969047e-06,2.2572583595288086e-05,0.10423097097464014
0.085,-5.2281057877416924e-06,0.00056784349283973,-0.007455016091944349,-49.0036662286328,55.47484985376933,5.132411519350764,-1653661.5876116622,5088933.034378105,3586210.5642818306,-253.0653096111029,-5260.146073494849,7301.644939718301,0.9945550639383465,-2.6379890021909095e-06,2.3980784111514946e-05,0.10421239951442812
0.09,-8.329693699930648e-06,0.0005687087994329552,-0.007465525784176103,-49.014857220046615,55.47484015786915,5.142748999759049,-1653662.8521527553,5088906.733634691,3586247.072999552,-252.75112762303652,-5260.151292375657,7301.842148844895,0.9945570059933213,-2.7993758746079263e-06,2.5391251911315377e-05,0.1041938634327782
0.095,8.622881942786598e-06,0.0005537022802866658,-0.007470681073032617,-49.01481578339263,55.47624563370391,5.1339010830934235,-1653664.115122862,5088880.432865322,3586283.582703391,-252.4369149866701,-5260.156455316602,7302.039386804836,0.994558950437871,-2.9687005772424415e-06,2.680306320444871e-05,0.1041753011836451
0.1,-1.2085707767414775e-05,0.0006006980704984553,-0.00746172806218284,-49.01711740542585,55.46282090216223,5.133406146770427,-1653665.3765218863,5088854.132070022,3586320.0933933966,-252.1226947804746,-5260.16166436504,7302.236615355606,0.9945608958775459,-3.0919665130536483e-06,2.8181977379280726e-05,0.10415672607887232
0.105,2.235428279864748e-05,0.0005960656630011737,-0.007460905486530794,-49.01879139621612,55.461265022516315,5.135357984834866,-1653666.6363498592,5088827.831248742,3586356.6050694245,-251.80849437681198,-5260.166847926638,7302.433795707119,0.9945628386338774,-3.2789590199574208e-06,2.9672349704208838e-05,0.10413817319947584
0.11,5.9174164028422035e-06,0.0005660366185038267,-0.00748863494615732,-49.021951351395096,55.464526011687816,5.145314163548472,-1653667.89460684,5088801.53040156,3586393.117731372,-251.4942979948939,-5260.172024696889,7302.6309833788355,0.9945647808283999,-3.379113601610636e-06,3.116017026887014e-05,0.10411962232635288
0.115,5.7325878695388035e-06,0.0005686668305867898,-0.007474321418020998,-49.03158285950553,55.45061462940923,5.137573400901211,-1653669.1512928363,5088775.229528571,3586429.631379378,-251.18010043855293,-5260.177171009558,7302.828219028507,0.9945667298936688,-3.512322631386267e-06,3.256904751238073e-05,0.10410100247132528
0.12,4.092088641613813e-06,0.0005837692932359626,-0.007478251117468604,-49.032086805513245,55.44856315221744,5.133366716552286,-1653670.406407791,5088748.928629883,3586466.1460133707,-250.86588151380946,-5260.182304180834,7303.025377984451,0.9945686748836614,-3.6466745744760554e-06,3.398441657161722e-05,0.10408241816905987
0.125,1.585978725709409e-05,0.0005790801837408633,-0.007466012808484254,-49.04028222587297,55.436804060144055,5.1358494761552125,-1653671.659951657,5088722.627705482,3586502.6616331306,-250.55166486183688,-5260.187456144166,7303.222526041876,0.9945706205453777,-3.789035575161989e-06,3.5436909805901214e-05,0.10406382405932979
0.13,8.747835302135362e-06,0.0005869236650758508,-0.007458625774692976,-49.04033686656687,55.439525937295144,5.137703629679636,-1653672.9119244253,5088696.326755435,3586539.1782385358,-250.23744241658085,-5260.192562508686,7303.41963595237,0.9945725626745451,-3.9009160552534675e-06,3.68808054966458e-05,0.1040452603417244
0.135,7.694782072210489e-06,0.0005785723711924279,-0.007447925613613862,-49.044062718706826,55.431855449932115,5.138124306175644,-1653674.1623260893,5088670.02577984,3586575.6958295545,-249.92322328603464,-5260.197675559495,7303.616771658365,0.9945745025331915,-4.03251942628433e-06,3.834235361259854e-05,0.10402671495561813
0.14,6.873307164980473e-06,0.0005707852096619235,-0.0074487899518803444,-49.04432620151455,55.41696455294732,5.130976749695989,-1653675.4111566683,5088643.724778727,3586612.2144061932,-249.60900821707764,-5260.202769656108,7303.81388384931,0.9945764392624477,-4.164568225766737e-06,3.978286299896464e-05,0.10400819613862697
0.145,1.29655557207864e-05,0.00056455555352529,-0.007467729350176345,-49.04810465813188,55.40926765868626,5.130181034288636,-1653676.6584162293,5088617.423752139,3586648.7339682155,-249.29481619359743,-5260.2078652930195,7304.01092503091,0.9945783758703048,-4.296634837195562e-06,4.1203796443684046e-05,0.1039896751363941
0.15,-1.5340673140064612e-05,0.0005942345800728378,-0.007487202609495713,-49.045659883889726,55.41046668531519,5.129257549978133,-1653677.9041048358,5088591.12270011,3586685.254515376,-248.9806264643906,-5260.212946605841,7304.207939119449,0.9945803170548442,-4.411935801584354e-06,4.2610823794716755e-05,0.10397110700544797
0.155,-7.75841009114759e-06,0.0005792175505764673,-0.00748805673447005,-49.05523514819773,55.4025653694464,5.131038296094922,-1653679.1482225282,5088564.821622625,3586721.776047642,-248.66645044984526,-5260.2180472510245,7304.404967192759,0.9945822629479013,-4.605335287091099e-06,4.4084288780194914e-05,0.10395249042133725
0.16,-8.545082241958983e-06,0.000575270993700786,-0.007479373715501593,-49.065710266171,55.3935985562694,5.129705338421406,-1653680.3907692905,5088538.52051973,3586758.298564984,-248.3522544993942,-5260.2231110429775,7304.601969629811,0.9945842087140253,-4.775979260369632e-06,4.5522385050152986e-05,0.10393387167617078
0.165,1.9271859942936933e-05,0.0005909448245141313,-0.0074835127209946185,-49.056588107137785,55.38687783190589,5.129421584955627,-1653681.631745008,5088512.219391587,3586794.8220672393,-248.03803253963994,-5260.228145975412,7304.798932630165,0.994586151874226,-4.9475528206603395e-06,4.695046404518056e-05,0.10391527448452764
0.17,-3.2016644083378015e-05,0.0005514058744000691,-0.0074663552354256755,-49.06986617198527,55.37985244515251,5.13695674458041,-1653682.8711497632,5088485.918238238,3586831.3465542835,-247.72386947133427,-5260.2331934379035,7304.995885011713,0.9945880957581493,-5.0540328773287445e-06,4.84247419231311e-05,0.10389666696135849
0.17500000000000002,-3.4732084745043794e-06,0.0005878520741345062,-0.0074714937631442414,-49.070234840151045,55.381253223248414,5.130131153521555,-1653684.1089836261,5088459.617059816,3586867.8720260668,-247.40967567376651,-5260.238175686209,7305.192828248361,0.9945900348403357,-5.277768281100597e-06,4.9787385816572886e-05,0.1038781020699802
0.18,9.247816124266174e-06,0.0005900944190418971,-0.007466904882037633,-49.07691240089534,55.36765779369379,5.127330136298383,-1653685.345246503,5088433.315856388,3586904.3984825555,-247.09547504479133,-5260.2431952549605,7305.389767334676,0.9945919749040222,-5.4399966862001484e-06,5.1248064787195514e-05,0.10385952436131828
0.185,1.1172871434709069e-05,0.0005706759223805154,-0.007484183817660064,-49.0817561051615,55.36253676276796,5.132518434804964,-1653686.5799383703,5088407.014627928,3586940.9259235924,-246.78127195675006,-5260.248188983291,7305.586647352732,0.994593913427145,-5.571176151203227e-06,5.2717622346790134e-05,0.1038409580247178
0.19,7.5092297760497814e-06,0.0005654771581618768,-0.007479911332788969,-49.072084396997965,55.35363353270047,5.144232323299738,-1653687.8130592236,5088380.713374584,3586977.4543490275,-246.46706936159157,-5260.25314847784,7305.783526586594,0.9945958560890259,-5.692530182592442e-06,5.413939559969187e-05,0.10382234868783585
0.195,-1.4671035582446634e-06,0.000559222971109155,-0.007456123998066687,-49.077011178498395,55.34226965447457,5.126514048553881,-1653689.0446092656,5088354.4120965395,3587013.9837588947,-246.15294748218517,-5260.258069337308,7305.9804203739095,0.9945977972926127,-5.82164387095713e-06,5.5547291301269695e-05,0.10380374993847821
0.2,-4.333080214760768e-06,0.0005776822434142302,-0.00746192601209764,-49.080958006462204,55.328552930293775,5.119826777649748,-1653690.2745886538,5088328.110793786,3587050.5141530056,-245.83880777401225,-5260.263031878054,7306.177223934634,0.9945997319752463,-5.971450837209905e-06,5.6937306885262144e-05,0.10378521030114665
0.20500000000000002,1.4711756056046215e-05,0.0005663771733391646,-0.007463491620319317,-49.0828147641831,55.3266924491551,5.129884316281636,-1653691.5029973558,5088301.8094662335,3587087.0455309637,-245.52467302673858,-5260.267989251681,7306.373959368308,0.9946016678127546,-6.133174374933359e-06,5.8372477715964364e-05,0.10376665620094441
0.21,7.764919608681458e-06,0.000571830446015814,-0.007441454326117966,-49.09385097271313,55.325166146807945,5.124869156476931,-1653692.7298354194,5088275.508113993,3587123.5778926704,-245.21055239573843,-5260.2729068153285,7306.570723388491,0.9946036037101185,-6.244610350888514e-06,5.9784478945790914e-05,0.10374809816891398
0.215,-1.9208421148549814e-05,0.0005775557718686641,-0.007451680900422048,-49.090553426655674,55.31874057197209,5.127753464887572,-1653693.9551027627,5088249.206737162,3587160.1112381476,-244.89638488617678,-5260.277825820177,7306.7674673635875,0.9946055335434776,-6.3747308190289705e-06,6.120823830774553e-05,0.10372959489754392
0.22,-2.535116654702624e-05,0.0005638648664136131,-0.007444323106662083,-49.089204802265805,55.31905344616171,5.12835763839186,-1653695.1787993591,5088222.9053357635,3587196.64556733,-244.5822536873083,-5260.282733461967,7306.96420573985,0.9946074656807709,-6.5734071490820445e-06,6.263923875304334e-05,0.1037110661655277
0.225,-2.5022717485325566e-05,0.0005744620139914533,-0.007469899538737668,-49.08864892858247,55.297624115326734,5.131963757694815,-1653696.4009253304,5088196.6039098045,3587233.1808802392,-244.26813484763073,-5260.287650133336,7307.160957804035,0.9946093955655322,-6.7838066297076515e-06,6.403460392878246e-05,0.1036925556938213
0.23,1.1749630796199763e-05,0.0005560215512477823,-0.007470199558775575,-49.100113934747306,55.29662713048276,5.118324070454257,-1653697.6214808384,5088170.302459397,3587269.7171767415,-243.95406836082194,-5260.292512735215,7307.357643061307,0.9946113317311182,-6.996140619385935e-06,6.545640384904434e-05,0.10367398158923433
0.23500000000000001,9.968086023056268e-06,0.0005792981153167936,-0.007484636060913385,-49.10775114584911,55.29083399093168,5.123010991469945,-1653698.8404658618,5088144.000984588,3587306.254456564,-243.63994104262127,-5260.29741114775,7307.554285931905,0.9946132676292556,-7.112259679482994e-06,6.684188184748062e-05,0.10365540669657945
0.24,1.2671180834767495e-06,0.0005759105923970558,-0.007451125348468276,-49.091862060833826,55.28322357623152,5.117231671000473,-1653700.0578802202,5088117.699485385,3587342.792719582,-243.32580227059717,-5260.30227003972,7307.750921490164,0.9946152069149543,-7.238842873947213e-06,6.828477584747962e-05,0.10363679587053576
0.245,5.844979354125241e-06,0.000595809479124166,-0.007460029976160501,-49.09916497236041,55.26708595383818,5.125709096331922,-1653701.273724094,5088091.397961772,3587379.331965719,-243.01174724435626,-5260.3071749960345,7307.947533231001,0.9946171371699598,-7.386177952707866e-06,6.971699287436348e-05,0.10361826833535959
0.25,-2.5551445676706497e-05,0.0005747972324594042,-0.007449231547499114,-49.102452884404634,55.2610352134447,5.120119917839718,-1653702.487997727,5088065.096413828,3587415.8721948187,-242.69770598866617,-5260.312002527188,7308.144106567905,0.9946190693806122,-7.527286253183899e-06,7.11998750219631e-05,0.10359971862105931
0.255,-2.2040276638286376e-06,0.0005511317258208543,-0.007457665167853618,-49.10677208667404,55.26096437487179,5.12321623546015,-1653703.7007011422,5088038.7948417235,3587452.4134067013,-242.38366004181546,-5260.3168393766855,7308.340646541335,0.9946209984500428,-7.741019179414836e-06,7.262237774283656e-05,0.10358119572734611
0.26,-2.343511799920199e-06,0.0005605276922608638,-0.0074655959187543254,-49.10522620735914,55.24653735795297,5.1193776396781425,-1653704.9118343047,5088012.493245468,3587488.9556013197,-242.06960497272013,-5260.3216628801965,7308.537200763409,0.9946229293608158,-7.890570799892474e-06,7.399208063422496e-05,0.10356265182304218
0.265,-6.15003211771491e-06,0.0005737996478094129,-0.007485156298790343,-49.105773395667434,55.23470021217621,5.12084289434759,-1653706.121397278,5087986.191625112,3587525.498778563,-241.7555843478051,-5260.32647967794,7308.733696627351,0.9946248619751475,-8.04290339794463e-06,7.538511083907007e-05,0.10354408816207479
0.27,1.000737707586746e-05,0.0005536268641842359,-0.007449075393481292,-49.0991451259092,55.23529583785332,5.1148271140655055,-1653707.3293902162,5087959.889980736,3587562.042938199,-241.44159087731995,-5260.331270462798,7308.930157696979,0.9946267993009247,-8.208140410277169e-06,7.681015680982746e-05,0.10352547582708536
0.275,3.3728459021283126e-07,0.0005818834297584966,-0.0074421363406398915,-49.10623691109425,55.21296606041799,5.119264441153827,-1653708.5358132543,5087933.588312291,3587598.588080142,-241.12762441417385,-5260.336107915909,7309.126619638425,0.9946287269440824,-8.327973018248197e-06,7.81892242747232e-05,0.1035069531707125
0.28,2.2596202480272205e-05,0.0005852863267337953,-0.007434543988153022,-49.1114000909924,55.215195227309415,5.1161472846961615,-1653709.7406665122,5087907.286619845,3587635.134204209,-240.81367875489605,-5260.34087016279,7309.323006931433,0.9946306524392889,-8.479161523890225e-06,7.96360515319238e-05,0.10348844773402281
0.28500000000000003,1.5774928606289616e-05,0.0005453269427542915,-0.0074380819030915235,-49.11271203236968,55.20122112356204,5.118427821116331,-1653710.9439499793,5087880.984903552,3587671.6813102253,-240.4997080370622,-5260.3456470258125,7309.5193997242495,0.9946325756239202,-8.575880411274663e-06,8.109709933860626e-05,0.10346996113578841
0.29,1.0862141175195398e-05,0.0005680748301280429,-0.007452704273072178,-49.114942231259185,55.19387761518416,5.116208749907157,-1653712.1456636642,5087854.683163464,3587708.229398101,-240.18576597867585,-5260.35038811382,7309.715750675513,0.9946344993859229,-8.679225176201347e-06,8.245702028637555e-05,0.10345146570651191
0.295,1.5783099583973e-05,0.0005678713913787935,-0.007446459351165686,-49.113672641112174,55.18947237374645,5.115648717138186,-1653713.3458076557,5087828.381399683,3587744.7784676612,-239.87183058669564,-5260.355124464916,7309.91207328846,0.9946364265783619,-8.800672277793902e-06,8.38722348844099e-05,0.10343293388192788
0.3,-5.910288004758093e-06,0.0005469882869657565,-0.007470678393083847,-49.117931363132065,55.1756667235669,5.105855610783359,-1653714.5443820178,5087802.079612213,3587781.328518812,-239.55791430867816,-5260.359863460593,7310.10838713512,0.9946383518091276,-8.909829049989972e-06,8.528821619452074e-05,0.10341441754879893
0.305,2.3048349463909745e-05,0.000560679388502903,-0.007457309830794479,-49.11414290008217,55.16787302521684,5.110422513273495,-1653715.741386798,5087775.777801033,3587817.879551339,-239.2439977083509,-5260.364608622699,7310.304623548684,0.994640282957599,-9.067534636055448e-06,8.664666057135614e-05,0.10339584096163364
0.31,-3.1321693750682148e-06,0.0005767348876375928,-0.007447787377204945,-49.11131921530429,55.159275712485744,5.10911055049527,-1653716.9368221029,5087749.475966177,3587854.431565033,-238.93012424070488,-5260.369333723197,7310.500853926972,0.9946422102998889,-9.156767762083406e-06,8.804663503035415e-05,0.10337729757396107
0.315,-5.744830627104276e-06,0.0005943819325322694,-0.00747106394851251,-49.12028658391354,55.15192540318015,5.116168714026419,-1653718.1306881222,5087723.174107698,3587890.984559812,-238.61628352328057,-5260.374058050767,7310.697057760741,0.9946441348297507,-9.31524884694753e-06,8.947976719124723e-05,0.10335877783417517
0.32,4.489036275346084e-06,0.0005565038351919551,-0.007454266421521076,-49.12047578912351,55.14556361306988,5.1102700985691385,-1653719.3229849092,5087696.872225734,3587927.53853559,-238.30243122315687,-5260.378727178646,7310.893253449415,0.9946460650221594,-9.484791748460504e-06,9.095610499932906e-05,0.1033402001786333
0.325,-1.0202328505092059e-05,0.0005864972000488073,-0.007472686115853991,-49.12015872013873,55.12971385374669,5.111132911247018,-1653720.5137124578,5087670.570320385,3587964.0934922644,-237.98858824252696,-5260.383412531607,7311.089416291687,0.9946479905355057,-9.619097313047513e-06,9.234089884733184e-05,0.10332166425446389
0.33,-1.96953515921633e-05,0.000553581292405987,-0.007442658060003105,-49.108133778210174,55.12028378645507,5.109506829776877,-1653721.7028708854,5087644.2683916865,3588000.6494296226,-237.67478278278315,-5260.388066824316,7311.285527093383,0.994649920451142,-9.797686378569085e-06,9.379647947960337e-05,0.10330308249400257
0.335,-2.7776707680790948e-05,0.0005495757701743328,-0.0074674345847749336,-49.12521260285621,55.10910415929153,5.108537709016531,-1653722.8904604733,5087617.966439673,3588037.2063474776,-237.3610523731418,-5260.392738653558,7311.481614937921,0.9946518422715172,-9.991373199188065e-06,9.516775965593532e-05,0.103284575368963
0.34,-1.1502256543020911e-05,0.0005850655775467942,-0.007447459128072453,-49.11948156834743,55.10138938261858,5.112598678645293,-1653724.0764812808,5087591.6644644225,3588073.7642456396,-237.0472707315199,-5260.397361504557,7311.677649721647,0.9946537701428266,-1.0204126978780142e-05,9.65269922314021e-05,0.10326600659983233
0.34500000000000003,1.2249759411028558e-06,0.0005640275046841691,-0.007455641247757188,-49.121933120762115,55.091391180370834,5.107698443180022,-1653725.260933308,5087565.362466092,3588110.323123961,-236.73354009978846,-5260.401970477058,7311.873679003269,0.9946556925012905,-1.0385569550634172e-05,9.797867695340615e-05,0.10324748746142526
0.35000000000000003,5.346987386800369e-06,0.0005666315929867074,-0.007447880794355953,-49.12663533732366,55.080803329915746,5.104365266911153,-1653726.4438166996,5087539.060444719,3588146.8829823127,-236.41981653031954,-5260.406578753164,7312.069661509448,0.9946576166299625,-1.0529935767035208e-05,9.938133246837957e-05,0.10322894793842355
0.355,-1.8039472990683947e-06,0.0005812608950121335,-0.007448598163520023,-49.11637530714508,55.06994090971779,5.108281563586186,-1653727.6251314734,5087512.758400337,3588183.44382046,-236.1060930308223,-5260.411174186806,7312.265597318704,0.9946595384081499,-1.0664722119691048e-05,0.00010079152737087949,0.10321042767578203
0.36,-9.231665103568617e-06,0.0005554450383609773,-0.007438761542000032,-49.117658464942565,55.0598980802234,5.106775481243148,-1653728.804877822,5087486.456333006,3588220.0056382488,-235.79244636286518,-5260.415758363333,7312.46151830889,0.9946614600206372,-1.0821065254169005e-05,0.00010223625502852793,0.10319190559470884
0.365,-3.556705933644807e-05,0.0005374416778582417,-0.007431560587299653,-49.11729603142329,55.052366727379386,5.102479529714825,-1653729.983055979,5087460.154242783,3588256.5684355516,-235.47881641315237,-5260.420330756808,7312.657402829715,0.9946633787554091,-1.0989216063717061e-05,0.00010361487162161851,0.10317340794055921
0.37,2.0152769724474823e-06,0.0005736013229764429,-0.007446580866856344,-49.12489362084345,55.03496413755458,5.092716168483964,-1653731.159666026,5087433.852129677,3588293.132212195,-235.16520237204594,-5260.424911511821,7312.85325463244,0.9946652952912263,-1.1218208464543086e-05,0.00010494192738714871,0.10315492816420031
0.375,-1.510816067678228e-05,0.0005566771447152425,-0.007447342639115878,-49.11746745200485,55.02791563030472,5.1016309475201655,-1653732.3347079807,5087407.54999369,3588329.6969678607,-234.8515795517454,-5260.429483269638,7313.049011575709,0.9946672153461972,-1.1363075301942871e-05,0.000106368591563156,0.10313641099071226
0.38,1.3075459706968302e-05,0.0005498273997167467,-0.0074348007230860685,-49.118668570744624,55.01516037990399,5.096135438073318,-1653733.5081819803,5087381.247834915,3588366.2627023417,-234.53802032862612,-5260.434026935887,7313.244780731451,0.9946691352548522,-1.1546158895516828e-05,0.00010774875574254145,0.10311789189202981
0.385,-7.670619435651433e-06,0.0005867270984670923,-0.007451230583881055,-49.12063679394131,55.008727587171094,5.102057040918111,-1653734.6800882262,5087354.945653426,3588402.8294155216,-234.22447798722763,-5260.438568544492,7313.440491297586,0.9946710515868068,-1.1657389835276819e-05,0.00010911915276040316,0.10309940393771284
0.39,1.5674393538931663e-05,0.0005414736685061873,-0.007470284744708689,-49.11569960346703,54.996545981657796,5.09901671101806,-1653735.8504268017,5087328.643449315,3588439.39710725,-233.9109522107607,-5260.44307592107,7313.636200194786,0.9946729717964565,-1.182972490622586e-05,0.00011057595964585133,0.10308087509630702
0.395,4.076622865153165e-05,0.0005711101271877179,-0.007472225392680214,-49.12331585130841,54.986514770515114,5.105215372262789,-1653737.0191978645,5087302.341222662,3588475.965777413,-233.5974729105235,-5260.4475854737375,7313.83186493862,0.9946748965815825,-1.1932351698879184e-05,0.00011192625108086824,0.10306229883207246
0.4,-7.395355097098529e-06,0.0005894099208927625,-0.007414265199654018,-49.11443622880945,54.97643367328078,5.093924973569845,-1653738.1864015262,5087276.038973598,3588512.5354258493,-233.28399181746957,-5260.452039893667,7314.0275094305225,0.9946768215102373,-1.1980219488037458e-05,0.00011335670407792844,0.10304371769799249
0.405,-9.528641999357895e-06,0.0005808788606868556,-0.007441404100137526,-49.11532895377701,54.953096521531485,5.099470337018369,-1653739.352037907,5087249.736702143,3588549.1060523693,-232.97056047304926,-5260.456541904804,7314.223098613913,0.9946787311546562,-1.2152548072118957e-05,0.00011482025785143038,0.10302528067026637
0.41000000000000003,-6.502509221337328e-06,0.0005612345539098959,-0.007446576825897261,-49.118928140085906,54.959025424750635,5.091260342736094,-1653740.5161072602,5087223.434408352,3588585.6776566594,-232.65718078054837,-5260.4609746965825,7314.418617391826,0.9946806474463163,-1.2327991992811981e-05,0.00011626204714401976,0.10300677612144722
0.41500000000000004,-9.49893204400882e-06,0.0005680020011271866,-0.00743952129624729,-49.11268480716554,54.94483882987597,5.095534968935599,-1653741.6786096364,5087197.13209228,3588622.250238562,-232.34376973106123,-5260.465453861945,7314.614143768219,0.9946825647293267,-1.2490853581639077e-05,0.00011765576598768102,0.1029882586734439
0.42,3.0250659003257642e-06,0.0005853860426516019,-0.007429287590373019,-49.11304786813417,54.93069330783685,5.097091518059707,-1653742.8395451207,5087170.829753885,3588658.82379802,-232.03042400319225,-5260.469904479666,7314.809639386633,0.9946844798472761,-1.2662906733665217e-05,0.00011906554217415832,0.10296975873527714
0.425,1.39052832728878e-05,0.0005671782453578894,-0.007421097901662847,-49.118016883476805,54.907651649567704,5.0889993463712875,-1653743.998913957,5087144.527393314,3588695.3983348464,-231.71711045258954,-5260.47432374824,7315.005091199306,0.9946863919803699,-1.2808288345538124e-05,0.00012052177171659699,0.10295128420531913
0.43,1.8855771513734075e-05,0.0005656564922881617,-0.007419484351156033,-49.11482221016872,54.903397190914895,5.095954592362394,-1653745.1567162639,5087118.225010705,3588731.973848655,-231.40381227521976,-5260.4787198393315,7315.200432232129,0.9946883016666315,-1.2921925184696257e-05,0.00012193552418988492,0.10293283000240644
0.435,-3.3089308705547847e-06,0.0005802204838263995,-0.007435627433888625,-49.106802718362935,54.891960181218884,5.093975374388528,-1653746.3129521722,5087091.922606173,3588768.5503392047,-231.0905511132637,-5260.483093185357,7315.395787694506,0.9946902105940006,-1.3022859449779555e-05,0.00012334676641756261,0.1029143797748546
0.44,3.9378750815204956e-06,0.0005659851772439375,-0.007420290853823936,-49.112407961419834,54.887246752345305,5.089671669047954,-1653747.4676219255,5087065.620179758,3588805.127806443,-230.77735018142693,-5260.487472502689,7315.591107551788,0.9946921233245302,-1.3182663329932442e-05,0.00012478852205991036,0.1028958893745509
0.445,2.268834301760939e-05,0.0005666600442168747,-0.007444187991040219,-49.11394149905358,54.867333825861905,5.082314064343091,-1653748.620725634,5087039.317731441,3588841.7062502145,-230.46413327282548,-5260.491854319535,7315.786401045241,0.9946940317695085,-1.332077968261206e-05,0.00012619674296244653,0.10287743707470005
0.45,1.4474500020427653e-05,0.0005559849990779728,-0.007434287736267211,-49.11189527914425,54.852708537365075,5.090684607152684,-1653749.7722633232,5087013.015261245,3588878.2856702204,-230.15094233294968,-5260.496224283834,7315.981601393002,0.9946959460156858,-1.3412449695111118e-05,0.00012761146374092787,0.10285892530733792
0.455,-3.1004780096479717e-06,0.0005606672663945291,-0.0074469036778713055,-49.1059822220469,54.84828981066996,5.083267720455515,-1653750.9222351888,5086986.712769334,3588914.8660661667,-229.8378039578796,-5260.500539857369,7316.176777103382,0.9946978573731534,-1.3521797176126986e-05,0.00012899752657902048,0.10284043812653185
0.46,-1.3631128956110275e-05,0.0005780171785094826,-0.0074471540066204205,-49.109001898194386,54.83567518198587,5.079541872530728,-1653752.0706414403,5086960.410255749,3588951.4474379313,-229.52469663948372,-5260.504894572009,7316.371928694522,0.9946997716259696,-1.3676057019529442e-05,0.000130390714002817,0.1028219195428252
0.465,-1.0011403061692623e-05,0.0005621953052370262,-0.00744532699382778,-49.117574239463046,54.82202418840241,5.077499295986482,-1653753.217482182,5086934.10772042,3588988.0297853174,-229.2116000204958,-5260.509236786047,7316.567025669124,0.9947016855903251,-1.3860963908160646e-05,0.00013182433930227836,0.10280340030360535
0.47000000000000003,-7.225552608589805e-06,0.0005895041824415831,-0.007433480445600088,-49.10821166471937,54.81307502892328,5.0830579817684995,-1653754.3627574153,5086907.805163463,3589024.6131080408,-228.89849327934655,-5260.513546065646,7316.76206383107,0.9947035987437362,-1.4032802465300266e-05,0.00013321954980939375,0.10278488557123809
0.47500000000000003,-1.1682822726674108e-05,0.0005704790423903441,-0.00742382717500874,-49.11021730194243,54.790683993394225,5.0820556672830115,-1653755.5064672932,5086881.502584998,3589061.1974059474,-228.58545791018184,-5260.517840105326,7316.957098692087,0.9947055084978985,-1.4204726682943852e-05,0.00013468338714013126,0.10276640026072836
0.48,-1.73742941420261e-05,0.0005605570056450675,-0.007437452212932236,-49.09928479917127,54.785519580270915,5.08831622325242,-1653756.6486120855,5086855.199985171,3589097.782678813,-228.2724590345804,-5260.522090593921,7317.152047741486,0.9947074154330567,-1.4382843960274234e-05,0.0001360987685939058,0.10274793892213768
0.485,-1.1010681452457652e-05,0.000562077035748176,-0.007435168341697526,-49.10509952290792,54.77241321623628,5.078228764245366,-1653757.7891920647,5086828.897364107,3589134.3689264627,-227.95953256170623,-5260.526334926266,7317.347012110934,0.9947093255259941,-1.457257056847932e-05,0.00013748801373431578,0.10272944366786181
0.49,-1.5060152668929314e-05,0.000565533619992974,-0.007419139838884827,-49.098143814078355,54.758566465250674,5.079514170894597,-1653758.9282073884,5086802.594721807,3589170.956148742,-227.64659697659908,-5260.530584956192,7317.54189968935,0.99471123468634,-1.4746861904013375e-05,0.00013888267320641545,0.10271095405510583
0.495,3.2638698221556027e-06,0.0005563206736568077,-0.0074231851509218095,-49.09955749487219,54.746541835341034,5.071859076955557,-1653760.0656581942,5086776.292058294,3589207.544345367,-227.33372539003494,-5260.53482041694,7317.736750083194,0.994713139384659,-1.4932105378172197e-05,0.00014028488916660746,0.10269250426734246
0.5,2.2714260652908702e-06,0.0005591351267391796,-0.00743429129810792,-49.09770215417749,54.731054416785284,5.0717577342506415,-1653761.2015446716,5086749.989373584,3589244.1335160886,-227.0208655323177,-5260.539063482961,7317.9315385823675,0.9947150447811035,-1.5069417149735369e-05,0.0001416688986796861,0.1026740443781341
0.505,-1.3521431890746588e-05,0.0005468241143072712,-0.007420321152172958,-49.09371924591946,54.71025849355051,5.075124521654368,-1653762.3358669556,5086723.686667717,3589280.7236606227,-226.7080480230036,-5260.543283172618,7318.126275032751,0.9947169526822719,-1.5209923274602174e-05,0.00014305965192674107,0.1026555568349287
0.51,-1.0385474901027255e-05,0.0005429711777099117,-0.007433508745201168,-49.08740846972702,54.70267954619114,5.068612041578696,-1653763.4686253169,5086697.383940864,3589317.3147786837,-226.39529648700673,-5260.547458056353,7318.32094940355,0.9947188566570986,-1.5386538472038332e-05,0.0001444157376619177,0.10263710400310223
0.515,-8.427118292063623e-06,0.0005470081632478942,-0.007414985329733581,-49.09096981810469,54.68653502644939,5.075254893586074,-1653764.5998200197,5086671.081193064,3589353.9068700313,-226.08258464105296,-5260.551662107987,7318.515589632038,0.9947207636725074,-1.5554371300873213e-05,0.00014576304603190274,0.102618618339849
0.52,-3.372968885395036e-06,0.0005639309049890132,-0.007409939254321513,-49.0696355855364,54.67640918580706,5.0716817899236935,-1653765.729451233,5086644.7784244,3589390.4999344787,-225.76990071127796,-5260.555803587675,7318.710189411802,0.9947226655898775,-1.5718363003988276e-05,0.00014712089666466885,0.10260017870424777
0.525,1.2571007180064364e-05,0.0005761277862303046,-0.00742934151706782,-49.085839830971345,54.65674927273632,5.06317442546345,-1653766.857519315,5086618.475634921,3589427.0939718666,-225.45733214156039,-5260.559987701938,7318.90476562506,0.994724565863391,-1.5874124844082643e-05,0.00014852212742343473,0.10258175157930527
0.53,2.01229146750559e-06,0.0005606164912717369,-0.007407341830133526,-49.07154647118069,54.653771316367525,5.072053756148286,-1653767.98402445,5086592.172824615,3589463.6889818655,-225.14472181060242,-5260.56413486114,7319.099234062743,0.994726470764528,-1.5993372164800917e-05,0.0001499577776067823,0.1025632761626866
0.535,-1.4508037625611517e-05,0.0005641327083581284,-0.007418177450268512,-49.07277849775929,54.63851057935991,5.061860543807015,-1653769.1089667503,5086565.869993584,3589500.284964293,-224.83219832023104,-5260.568277404767,7319.293736852789,0.9947283696860133,-1.6134891594394043e-05,0.00015135214753745775,0.10254485542434005
0.54,1.210813350732417e-05,0.0005431496430863369,-0.007392118084353496,-49.08383836479829,54.62201295730593,5.059092515554116,-1653770.232346471,5086539.567141815,3589536.881919029,-224.5196899599512,-5260.57243048235,7319.488157654663,0.9947302710397564,-1.6318399643396916e-05,0.00015275102599410345,0.1025264077104359
0.545,6.160705380020055e-06,0.0005559867444473624,-0.007397494669214888,-49.073616729785016,54.6245494132367,5.062443301527824,-1653771.3541636071,5086513.264269384,3589573.479845683,-224.20716447959185,-5260.5765418135725,7319.682503914497,0.9947321653803368,-1.6430329661716918e-05,0.00015410454638674595,0.1025080247569888
0.55,2.211532611874346e-07,0.000567717580827546,-0.007398833318029556,-49.07177713197403,54.58633332743849,5.062022053673849,-1653772.4744182446,5086486.961376343,3589610.078744163,-223.89469045609525,-5260.580674549059,7319.87688792845,0.9947340607517369,-1.6560341755687505e-05,0.0001554884660518906,0.10248962839942315
0.555,1.975526619101727e-06,0.0005741375100137641,-0.007403505972385777,-49.06264425353855,54.58705204215711,5.06088754480139,-1653773.5931107195,5086460.658462824,3589646.678614199,-223.58229950515891,-5260.58473307221,7320.071126702309,0.9947359561190834,-1.6708130773971252e-05,0.00015690003640816323,0.10247122867941984
0.56,2.5005168395416037e-06,0.0005366131702993767,-0.0073992598889243135,-49.05541712721851,54.57198871425109,5.057338438418509,-1653774.7102413499,5086434.355528931,3589683.2794554722,-223.2699526917134,-5260.588824274981,7320.26538240378,0.9947378523384339,-1.685320341877885e-05,0.000158328021283198,0.10245281730302634
0.5650000000000001,-1.0545238464116663e-05,0.0005837819877602313,-0.007395854429556833,-49.07238036283594,54.55269053243933,5.058579189192132,-1653775.8258103991,5086408.052574576,3589719.8812678847,-222.95766703882006,-5260.592917637793,7320.459582634788,0.9947397471426053,-1.6987357622187904e-05,0.00015966282354669785,0.10243441645208055
0.5700000000000001,7.4545491192327845e-06,0.0005683709484336048,-0.007397652023612246,-49.05761226416181,54.534220165970474,5.059473547521504,-1653776.9398179369,5086381.749599945,3589756.484051099,-222.6453480033437,-5260.5969348837425,7320.653703155005,0.9947416407131243,-1.7166032564494427e-05,0.00016111158680794937,0.1024160240379671
0.5750000000000001,-2.7685411166317133e-06,0.0005803273292027018,-0.007401987271673512,-49.05446731463004,54.5229505903839,5.05763369505661,-1653778.0522641463,5086355.4466052465,3589793.08780479,-222.3331357698038,-5260.600944471969,7320.847773151395,0.9947435344086635,-1.7295999535912622e-05,0.00016252663359696485,0.10239762711167719
0.58,-5.540973005973792e-06,0.0005359977680872961,-0.0073859660326868115,-49.05518352237819,54.514722876423996,5.051468566592289,-1653779.16314939,5086329.143590511,3589829.692528734,-222.02096170167317,-5260.604949756673,7321.041804393626,0.9947454288662144,-1.7454452407695754e-05,0.00016396879692327242,0.10237921937261917
0.585,-1.2401666844143955e-06,0.0005684232331599589,-0.007391096147872927,-49.0495179310969,54.496529175610235,5.051832783279808,-1653780.2724737877,5086302.840555719,3589866.2982227295,-221.7087974394656,-5260.608966814567,7321.2357938805335,0.9947473188993732,-1.760844730123949e-05,0.00016530000972310544,0.10236085144408556
0.59,-9.17782871859081e-06,0.0005612012611582005,-0.007395181899108999,-49.05072940312303,54.48298228511289,5.043066438892918,-1653781.3802375263,5086276.537500901,3589902.904886526,-221.39669798845546,-5260.612960242307,7321.429724752527,0.9947492098908334,-1.7760046515403833e-05,0.00016671296068699066,0.1023424707193067
0.595,1.587468040696681e-06,0.0005606680696314296,-0.007390140692914267,-49.042520901079975,54.459079043246945,5.048632742607423,-1653782.4864408025,5086250.234426095,3589939.512519799,-221.08461241951926,-5260.61696249686,7321.6235845677,0.9947511015885103,-1.7929539597773792e-05,0.00016810592038496927,0.10232407980224638
0.6,8.763614577254519e-06,0.0005597941685702521,-0.007379752051392747,-49.039609484407194,54.45054674822129,5.048029318599603,-1653783.5910838835,5086223.931331406,3589976.121122209,-220.77262008771473,-5260.620912759732,7321.817379307818,0.9947529916555666,-1.8072122182494966e-05,0.00016950030814172579,0.10230570138239693
0.605,-2.107813662104308e-07,0.0005715428649153339,-0.007382116798260651,-49.03548011669477,54.433583597750086,5.043706985819245,-1653784.6941670876,5086197.628216975,3590012.730693531,-220.46066146666467,-5260.624859624004,7322.011149634504,0.9947548787252521,-1.8196630613074573e-05,0.0001708943584222647,0.10228734875980414
0.61,6.696299864669771e-06,0.0005457453816601929,-0.007382013367382217,-49.034154298715045,54.41772122132359,5.046958001977874,-1653785.7956906224,5086171.325082825,3590049.341233535,-220.14875252562987,-5260.6288009319205,7322.204851948474,0.9947567660535266,-1.8346462715602762e-05,0.00017231533130129448,0.10226899022462003
0.615,-1.0297494722160878e-05,0.0005708780942022332,-0.0073924423713758285,-49.028740965379136,54.40252435250934,5.04342720879826,-1653786.895654725,5086145.021929063,3590085.952741939,-219.83688842092698,-5260.63270358928,7322.398509535101,0.9947586530260378,-1.8472521896410974e-05,0.00017367391452406593,0.10225063190983338
0.62,1.5257935132910624e-05,0.000559705094692805,-0.007384531762135012,-49.02837155089829,54.389186595760506,5.042682918958813,-1653787.9940596398,5086118.718755793,3590122.565218487,-219.52507754578357,-5260.6366042639975,7322.592109558975,0.9947605423115612,-1.8647271998876977e-05,0.00017509065559823494,0.10223224763033566
0.625,4.81414395293626e-07,0.0005878111350215117,-0.007378624058261175,-49.02318708149709,54.38098767916042,5.037500269121224,-1653789.0909055774,5086092.415563068,3590159.1786629185,-219.2132975159564,-5260.640485868249,7322.785663126008,0.9947624292399819,-1.875560919696131e-05,0.00017648614230605215,0.10221388297799283
0.63,-9.599328219157062e-06,0.0005567759047552211,-0.007386001421117886,-49.016517779916384,54.363610513440506,5.045460220009385,-1653790.1861927086,5086066.112350885,3590195.793075033,-218.90155488813272,-5260.644387525902,7322.979182733811,0.9947643143048723,-1.8907873670023985e-05,0.00017794775039888728,0.10219553298773715
0.635,-1.8793168746398346e-05,0.0005439915716915379,-0.007375120147021153,-49.0233608594756,54.33550262833793,5.04227409736003,-1653791.2799213203,5086039.809119317,3590232.4084546627,-218.5898898081537,-5260.648239454933,7323.172669132218,0.994766200927056,-1.907728217132027e-05,0.00017932960071597375,0.10217716462157106
0.64,5.203954925031219e-06,0.0005652814098273217,-0.0073737766146496075,-49.010485921392636,54.33217857444357,5.043526285805762,-1653792.372091662,5086013.505868635,3590269.024801426,-218.27824688178268,-5260.652033299412,7323.366036206159,0.9947680844344309,-1.926628442508028e-05,0.0001806773094331568,0.10215882328596547
0.645,9.730679053465164e-06,0.0005625882732972659,-0.007406835875838485,-49.00036466857999,54.31611230592557,5.039382389672834,-1653793.462703967,5085987.202598929,3590305.6421150505,-217.96667518988977,-5260.655848831954,7323.559413519796,0.9947699672501842,-1.940104449550234e-05,0.00018208409307683492,0.10214048524483345
0.65,-1.1912014397621959e-05,0.0005656588443157171,-0.007355455130436499,-49.00731694687241,54.29908242166595,5.037450299686985,-1653794.5517586016,5085960.899310127,3590342.260395414,-217.65517858637546,-5260.659672437836,7323.7527319753335,0.9947718581675575,-1.9523874289501723e-05,0.00018348533333068401,0.10212206495080174
0.655,5.513648014106731e-08,0.0005714822844310935,-0.007373647165280302,-49.00735278771575,54.27419655323741,5.028928577413422,-1653795.639255761,5085934.5960023,3590378.879642193,-217.34368518595082,-5260.663458144074,7323.945979521792,0.994773735623985,-1.970128829635684e-05,0.0001848886868322968,0.1021037724118699
0.66,4.075536239738088e-06,0.0005796765067906105,-0.007383315050119267,-48.99687020416134,54.25343667916812,5.031491690764143,-1653796.7251955532,5085908.292675585,3590415.499854921,-217.03223170524396,-5260.667228107644,7324.139111589987,0.9947756173827804,-1.9850435674798733e-05,0.00018630957661616381,0.10208543458990614
0.665,-5.174629586672225e-06,0.0005401832205023688,-0.007357181478000099,-48.98455908998465,54.24609193524238,5.030633071505806,-1653797.8095783126,5085881.98933009,3590452.121033162,-216.72087202419283,-5260.670969692443,7324.332184799695,0.9947775012647895,-1.9991680337234234e-05,0.00018775187044862903,0.10206707268727566
0.67,-1.560664819546943e-05,0.0005607149325099183,-0.00736589043663733,-48.981329296189045,54.23139498385899,5.0342441790918855,-1653798.8924044566,5085855.685965839,3590488.743176738,-216.40958565033344,-5260.674730856106,7324.525245584972,0.9947793781567473,-2.014583995808908e-05,0.00018909358759812864,0.10204877574883228
0.675,8.51432326130757e-06,0.0005653996024673463,-0.00736042100307969,-48.98160732727459,54.21284582944757,5.032001014830354,-1653799.973674298,5085829.382582866,3590525.366285524,-216.09835090662443,-5260.678458502933,7324.718268899256,0.9947812569215015,-2.0331185671748696e-05,0.00019048370411703673,0.10203045712079778
0.68,1.369795291532945e-05,0.0005721787992979396,-0.0073473386254169935,-48.974512355459396,54.20261222150004,5.019249146280348,-1653801.0533880542,5085803.07918132,3590561.990359246,-215.7871515526709,-5260.68215967987,7324.911219804867,0.9947831339510748,-2.0457735995669037e-05,0.0001918916240880523,0.1020121520484882
0.685,-1.48368000430728e-06,0.0005619532972957568,-0.007380345165665943,-48.9676426077897,54.178071635835934,5.01928906197606,-1653802.1315459134,5085776.775761146,3590598.6153975674,-215.47599208458092,-5260.685909956143,7325.104108874536,0.9947850073030106,-2.0573117469404668e-05,0.00019331772622262238,0.10199387947398052
0.6900000000000001,3.927795944914772e-06,0.0005621144852180131,-0.00736639016111388,-48.96666568236771,54.168642144178506,5.025773348200651,-1653803.208148178,5085750.472322307,3590635.2414001236,-215.16491380312638,-5260.689625654051,7325.2969136065385,0.9947868887361223,-2.0723663693485035e-05,0.0001947145250693626,0.10197552478653518
0.6950000000000001,4.784964650975091e-06,0.0005726723917426848,-0.007368641073861919,-48.96782082706993,54.15246454103007,5.0252074465992855,-1653804.2831951405,5085724.168864983,3590671.8683666787,-214.85387121591106,-5260.693303937427,7325.48970842651,0.9947887662717799,-2.08607860471274e-05,0.00019611310503688217,0.10195720476723447
0.7000000000000001,1.3350433217348563e-05,0.000553668719130182,-0.007365894617315457,-48.955826535216495,54.13126933529321,5.026065517904275,-1653805.3566869635,5085697.8653893415,3590708.496297061,-214.54285793417594,-5260.696952736108,7325.68244442447,0.9947906440365619,-2.0998468879330027e-05,0.00019753816052341268,0.1019388791142117
0.705,-1.990803492197897e-05,0.0005468458680681828,-0.007328756599912304,-48.95365123540967,54.11326044862701,5.012999199442839,-1653806.4286239678,5085671.561895505,3590745.1251909626,-214.2319437891199,-5260.700581941328,7325.875116265766,0.9947925207718168,-2.1110005195352262e-05,0.00019891813728309046,0.101920560253547
0.71,-1.1947535847466216e-05,0.0005569866034015331,-0.007340166305163495,-48.94853533957093,54.10025806565929,5.022592833125337,-1653807.4990064802,5085645.258383466,3590781.7550479774,-213.92106114274057,-5260.704233567996,7326.067689688047,0.994794387708366,-2.1302497752032615e-05,0.0002002726733279566,0.10190233373675571
0.715,-3.45326792969193e-06,0.0005497242620898829,-0.0073671939218335385,-48.94364034490986,54.07413831081801,5.012159373234099,-1653808.5678347407,5085618.954853293,3590818.3858678285,-213.61024312543154,-5260.707835808612,7326.260250771382,0.9947962572105906,-2.147778177612522e-05,0.00020165445654754232,0.1018840788052066
0.72,1.1828820950932195e-05,0.0005745338111717247,-0.007345757583696919,-48.9321172272442,54.062615934933,5.00946632768974,-1653809.6351090656,5085592.65130511,3590855.017650181,-213.29948681331578,-5260.711437089429,7326.452690107025,0.9947981332630166,-2.1630104461298848e-05,0.00020302034044912044,0.10186575661770557
0.725,-7.779582886925134e-06,0.0005460126760566268,-0.007362226536275956,-48.92487014538975,54.041173888227625,5.013511554632228,-1653810.7008297963,5085566.3477388825,3590891.6503946413,-212.98880543022932,-5260.715053975171,7326.645094183425,0.9948000035061615,-2.1750727884079948e-05,0.000204451818477451,0.10184748769852336
0.73,-2.791647221553306e-06,0.0005523534424094408,-0.007349387346041509,-48.923620355178116,54.024448352027854,5.004209186868974,-1653811.7649973258,5085540.044154677,3590928.284100972,-212.67820640823615,-5260.718628334555,7326.837437987053,0.994801877617918,-2.191286380285308e-05,0.00020580737081079582,0.101829177798004
0.735,5.657971965199378e-06,0.0005408492576504868,-0.0073617319596653765,-48.92134543838088,53.99653589073602,5.004410235007755,-1653812.8276119349,5085513.740552577,3590964.9187688124,-212.36763720347818,-5260.722211329034,7327.029698292776,0.9948037481198826,-2.2064202276319535e-05,0.00020717996308666447,0.1018108997910692
0.74,-4.760864047817784e-06,0.0005518024024796639,-0.007338560458337632,-48.91126555922196,53.99488725121323,5.013105479683142,-1653813.888673865,5085487.436932694,3591001.5543977013,-212.05713483124342,-5260.725741948281,7327.221857114591,0.9948056214320598,-2.2191604725583568e-05,0.0002085260942541913,0.10179259104460514
0.745,3.147153344400695e-05,0.0005458607927755521,-0.007322606677261797,-48.90221563621911,53.97245973019171,5.008968988085504,-1653814.9481834462,5085461.133295182,3591038.1909874724,-211.74669764725678,-5260.729262921781,7327.41405137024,0.9948074885034738,-2.2347694251720885e-05,0.00020989681586078786,0.1017743398962536
0.75,1.4663509572270766e-05,0.0005513339199405832,-0.007332486179541532,-48.90135336125961,53.94934558185269,4.998269976714049,-1653816.0061410456,5085434.829640087,3591074.8285380006,-211.43634214852608,-5260.732775076515,7327.6061599359555,0.9948093511848245,-2.2412152989309696e-05,0.00021126198021409362,0.10175612837219981
0.755,8.405534246915414e-06,0.000548925647349108,-0.007348882746978011,-48.90314119854094,53.933478291893685,5.005036178915338,-1653817.0625469622,5085408.525967435,3591111.4670487875,-211.1260244602876,-5260.736285837053,7327.798154807572,0.9948112160398785,-2.2519811196115216e-05,0.00021263647993917688,0.10173789225182425
0.76,-8.344755168402322e-06,0.0005301563154763435,-0.007360779093260104,-48.88748794339937,53.92009674889259,5.003431669067528,-1653818.1174013782,5085382.222277376,3591148.1065194546,-210.8157420002576,-5260.739737550769,7327.990112023749,0.9948130847293201,-2.264242934023226e-05,0.00021400339754461367,0.10171961532173153
0.765,-1.1632329547093791e-05,0.0005700457175457849,-0.0073232162750832865,-48.88901775563295,53.892165934710334,5.001822369594645,-1653819.1707046276,5085355.91857002,3591184.7469498166,-210.50555770037468,-5260.743204737478,7328.182032892091,0.9948149561149424,-2.280193933592852e-05,0.00021531937487907543,0.10170130878048549
0.77,3.057164092398129e-06,0.0005763767231239375,-0.007333238317005827,-48.87774796391884,53.88528542263702,5.004703764586434,-1653820.2224570739,5085329.614845461,3591221.388339509,-210.19542085078803,-5260.746618846473,7328.373843929886,0.9948168175913897,-2.2979747435316213e-05,0.00021673372483971902,0.10168309562441184
0.775,-6.15636998087707e-06,0.0005656075608605713,-0.007337092320922722,-48.87611152178087,53.864421517147015,4.999066416819626,-1653821.2726590172,5085303.311103823,3591258.030688253,-209.88535649019286,-5260.750036612698,7328.565653844735,0.9948186812769843,-2.312263695952773e-05,0.00021816755381143344,0.10166485750043747
0.78,2.4141293692756152e-06,0.0005478869517322444,-0.007356918586722593,-48.86761443799097,53.84732483537193,4.997687807972438,-1653822.321310748,5085277.007345132,3591294.673995823,-209.57533581462513,-5260.753439778678,7328.757374006374,0.9948205456108975,-2.3285705954176554e-05,0.00021957225734547513,0.10164660976262818
0.785,2.061426095796236e-05,0.0005406115874625878,-0.007339150539090533,-48.8561912099772,53.82814356974274,4.994790622801119,-1653823.3684125582,5085250.703569447,3591331.318261851,-209.26538821290026,-5260.756834296034,7328.949037348834,0.9948224146556721,-2.3422967452507727e-05,0.00022093506549124444,0.10162831267771531
0.79,-5.72414127664723e-06,0.0005557345491011824,-0.007328161608526923,-48.857618126821464,53.808040170981336,4.991826529043699,-1653824.4139648501,5085224.399776792,3591367.963486029,-208.95552862622932,-5260.760227403674,7329.140633625405,0.9948242788536328,-2.3513105924250406e-05,0.00022228440448554177,0.1016100597388222
0.795,9.115182507081437e-06,0.0005654005046718636,-0.0073157798925408074,-48.84124430329659,53.78472902447447,4.985192725296396,-1653825.4579679244,5085198.095967247,3591404.6096679834,-208.64570102911654,-5260.763590838497,7329.332148132889,0.9948261399139051,-2.3672585098994197e-05,0.00022366466515761268,0.10159183410946764
0.8,5.568388704753221e-06,0.0005508962118847048,-0.007322482260608303,-48.84505910413304,53.764759638087085,4.976287610149611,-1653826.5004221427,5085171.792140849,3591441.2568072844,-208.3359862736444,-5260.766968248178,7329.52357245878,0.9948279974896566,-2.379760592977552e-05,0.0002250727352355397,0.10157363923114023
0.805,-9.060381082928736e-06,0.0005329523638815698,-0.00732918467175419,-48.84162513828468,53.748759149385116,4.987561466044234,-1653827.5413278206,5085145.488297592,3591477.904903458,-208.02628491689546,-5260.770334764142,7329.714896925599,0.9948298564403014,-2.3927768513774032e-05,0.0002264438309956663,0.10155542765220713
0.81,-7.482387095688968e-06,0.0005321117920604158,-0.007351467731027224,-48.83021815763187,53.72919658502033,4.990534055345109,-1653828.5806851534,5085119.184437668,3591514.553956201,-207.716648155911,-5260.773634849436,7329.906200130811,0.9948317167663783,-2.4089761988476537e-05,0.00022776658451172872,0.10153719937898155
0.8150000000000001,-9.904860249040407e-06,0.0005332243964959298,-0.007327981357662667,-48.82305678663098,53.710147549289495,4.98198545362642,-1653829.6184945423,5085092.880561307,3591551.2039653286,-207.4071074999728,-5260.77690945744,7330.097451050528,0.9948335824126509,-2.424763017392591e-05,0.0002290876466026573,0.10151891565079978
0.8200000000000001,-1.4583347277980596e-05,0.0005609854492443525,-0.007317340540080188,-48.81412470945781,53.69078728248512,4.9797067491058575,-1653830.6547563816,5085066.576668542,3591587.8549304963,-207.09762822291077,-5260.780196480877,7330.2886160253975,0.9948354417606382,-2.44117921701765e-05,0.00023041086236328997,0.10150069030215902
0.8250000000000001,-1.418341165714781e-05,0.0005340125980582407,-0.0073254947209061136,-48.80336907769744,53.67402852060355,4.969655643605481,-1653831.6894710194,5085040.272759366,3591624.5068513183,-206.7882268444678,-5260.783474099656,7330.479712771758,0.994837298056957,-2.4594628255625328e-05,0.00023180193571945172,0.1014824913849687
0.8300000000000001,9.098594692278112e-06,0.0005377576108700466,-0.007320926386725257,-48.80272094645836,53.649903386028846,4.9695628256255935,-1653832.7226388287,5085013.968833724,3591661.1597274295,-206.4788968638669,-5260.786782616962,7330.670731639987,0.9948391561025413,-2.4769631200630842e-05,0.00023312602596632423,0.10146427215480801
0.835,-2.367815770428416e-06,0.0005478725719178253,-0.0073002505582531185,-48.794218241582435,53.635870393328766,4.967713566994453,-1653833.7542601184,5084987.664891655,3591697.8135584136,-206.1696190488105,-5260.790045185617,7330.861662112293,0.9948410126533375,-2.4887676808430464e-05,0.00023446533636056058,0.1014460642385493
0.84,-1.3210586554594023e-06,0.0005476280351993415,-0.007316150464843255,-48.78600870328279,53.61253577837974,4.972881034360544,-1653834.7843351865,5084961.360933271,3591734.468343936,-205.86040812592515,-5260.79330794329,7331.052546821473,0.9948428636196482,-2.5036793734420698e-05,0.00023582689685217734,0.10142790771721476
0.845,1.2759754049971227e-05,0.0005571602582799377,-0.007299614343490656,-48.77596552384016,53.59038850677691,4.962496279746409,-1653835.8128644282,5084935.056958699,3591771.1240837215,-205.55128856256675,-5260.796521285545,7331.243367351212,0.9948447182839487,-2.518325462183761e-05,0.00023718811350635988,0.10140971161645888
0.85,5.5131495731167075e-06,0.0005501293000124967,-0.007311289218507108,-48.76970274379054,53.57229149579725,4.970297544890964,-1653836.8398482658,5084908.752968012,3591807.7807773566,-205.24224648584308,-5260.799753005116,7331.434086579041,0.9948465684172153,-2.5297101789984463e-05,0.00023857660865435557,0.10139155659989363
0.855,-2.3290094337686994e-05,0.0005372491231329883,-0.0073012258671324125,-48.76999085263571,53.555767291279196,4.960981855263264,-1653837.8652870844,5084882.448961298,3591844.4384244946,-204.9332809619927,-5260.802932907667,7331.624768638448,0.9948484211798037,-2.542719686250675e-05,0.00023994577931093147,0.10137337251730731
0.86,1.1400212858809218e-05,0.0005615795602116008,-0.007281696891507329,-48.766032052755556,53.5303554079615,4.960649979735752,-1653838.8891811313,5084856.144938669,3591881.0970248324,-204.6243378219808,-5260.806118646848,7331.815366582503,0.9948502710641425,-2.5625658776693796e-05,0.00024127561626270604,0.10135521344758179
0.865,-2.027521355385848e-05,0.000550115750908345,-0.0073133331113483585,-48.75800839120982,53.517482377576016,4.955308040146691,-1653839.9115306349,5084829.840900214,3591917.7565779313,-204.31546364546497,-5260.809263178712,7332.005872952509,0.9948521156551661,-2.5743994790615823e-05,0.00024267475734845206,0.10133710289251917
0.87,1.0809918267872988e-05,0.0005469625783552266,-0.0072816909040241806,-48.75421685146245,53.495457358655955,4.953956712617325,-1653840.932335913,5084803.536845998,3591954.417083434,-204.00664759387055,-5260.8124232528,7332.196328051446,0.9948539679328662,-2.5938226628312828e-05,0.00024403735958971104,0.10131891364008622
0.875,7.374344377659698e-06,0.0005713353558141363,-0.007309522322670446,-48.73587668508043,53.476572294588124,4.961772106646352,-1653841.9515972629,5084777.232776056,3591991.0785410097,-203.69789233815428,-5260.815553550836,7332.386702356303,0.9948558118666238,-2.60543275459299e-05,0.0002453999952150074,0.10130080303341822
0.88,1.0451898722108832e-05,0.0005480382049749331,-0.007311719027286866,-48.72771835665441,53.44560980321079,4.952258584668424,-1653842.9693151666,5084750.928690535,3592027.740950382,-203.3892691742004,-5260.8186549172815,7332.5770463613935,0.9948576625006703,-2.6185162735844973e-05,0.00024682237737764357,0.10128262317275182
0.885,-6.1230426912960995e-06,0.0005422903366233952,-0.007310149389217043,-48.72318212191595,53.44110999378864,4.945886361481135,-1653843.9854901696,5084724.62458953,3592064.4043111326,-203.08073204296318,-5260.82174707625,7332.767254122578,0.9948595133712503,-2.630244595978919e-05,0.00024818759519792353,0.10126443781416039
0.89,2.6419207792174826e-06,0.0005350623322745813,-0.007284633218509938,-48.71779814500122,53.41284286133935,4.9483778136834005,-1653845.0001225523,5084698.3204729855,3592101.0686228652,-202.77222097167393,-5260.824870918092,7332.957438830528,0.9948613635127433,-2.6459497409711234e-05,0.00024953432110395916,0.10124625633613792
0.895,-2.7037291789385274e-07,0.0005733672048524338,-0.007308957496066687,-48.70748114103535,53.39011264883254,4.949991192099475,-1653846.0132125898,5084672.016340961,3592137.733885286,-202.46379400604988,-5260.827938761041,7333.147529459588,0.9948632068678636,-2.659290360315545e-05,0.00025086529000804565,0.1012281382818756
0.9,7.5761758214163724e-06,0.0005460808879837976,-0.007279323612592988,-48.70663838670516,53.374799798697964,4.946259347497076,-1653847.02476073,5084645.712193672,3592174.400097985,-202.15546211869238,-5260.830976845589,7333.337550113189,0.9948650560215461,-2.6743262204953535e-05,0.00025229079046678633,0.10120995969469093
0.905,-1.1704858874015367e-05,0.0005421355644290771,-0.007300153345126742,-48.6904536406097,53.36075134877429,4.949956947855192,-1653848.034767292,5084619.408031221,3592211.0672606304,-201.84716262292218,-5260.834003809832,7333.527508114721,0.994866897362082,-2.6867182346464363e-05,0.0002536504126867136,0.10119185477481576
0.91,1.8382870119742023e-05,0.0005559714557786783,-0.007269777441993099,-48.685983992287106,53.32952928265428,4.942934414789299,-1653849.0432326272,5084593.1038536485,3592247.735373006,-201.53897151856637,-5260.83702471746,7333.717442105001,0.9948687436410587,-2.7038072759068116e-05,0.00025499534303416964,0.10117369802660785
0.915,6.68269440211471e-06,0.0005252026433201276,-0.007304900604200851,-48.673076060525034,53.30355714341342,4.939915975239939,-1653850.0501571898,5084566.799661041,3592284.4044347177,-201.23085350529098,-5260.840018447398,7333.907242620707,0.9948705818982752,-2.7137610016234836e-05,0.0002563822978064594,0.10115561677462612
0.92,-5.976725453405511e-06,0.0005463286218251065,-0.007294252626603084,-48.663386781966686,53.29062424767791,4.948818305858233,-1653851.0555414287,5084540.495453498,3592321.0744451974,-200.9228420707679,-5260.842998480001,7334.096949192253,0.9948724287246546,-2.7258489082810037e-05,0.0002576897637981717,0.10113744814096956
0.925,-1.534833995874614e-07,0.000556203219105793,-0.0072628077158868294,-48.6614718623005,53.26661027550682,4.939832894734701,-1653852.0593858203,5084514.191231149,3592357.745404184,-200.61491457083247,-5260.845941215699,7334.286645426536,0.9948742725111863,-2.741618911890399e-05,0.00025904657370953666,0.1011193059636144
0.93,1.210006945707875e-06,0.0005453566399117821,-0.007266983860538115,-48.66300828905161,53.24131378001932,4.933220257030015,-1653853.0616906898,5084487.886994107,3592394.4173113722,-200.3070331681603,-5260.848875773681,7334.476229825512,0.9948761080112027,-2.75618815784268e-05,0.0002604294177523375,0.10110124195746938
0.935,-9.077760318348496e-06,0.0005414518532386948,-0.007282191557312202,-48.64471115424302,53.22284762688567,4.930093333898242,-1653854.0624562418,5084461.582742461,3592431.090166199,-199.9991877208351,-5260.851782729201,7334.6657009141845,0.9948779442438453,-2.770144398129295e-05,0.00026178562854116714,0.10108316753077605
0.9400000000000001,-5.611637934842515e-06,0.0005390038494247405,-0.007279995948118806,-48.635263538783825,53.20898243221706,4.937671401652492,-1653855.0616828594,5084435.278476242,3592467.763968233,-199.69145930615235,-5260.8547046896365,7334.855112677999,0.9948797839905461,-2.7865617239190225e-05,0.0002631295264241409,0.10106505525296121
0.9450000000000001,-1.0434099472753418e-05,0.0005387082863757561,-0.007271391956935629,-48.625783801371405,53.17637538308188,4.930600545390986,-1653856.059371042,5084408.974195501,3592504.4387172805,-199.383813691797,-5260.857591901016,7335.044506373048,0.9948816228528923,-2.8020549586656277e-05,0.0002644682114582663,0.10104694840028355
0.9500000000000001,-1.0616310948126051e-05,0.0005617745477211643,-0.0072750129287380465,-48.61352780936848,53.15260162286925,4.919869773218098,-1653857.0555212412,5084382.669900373,3592541.1144129587,-199.07626599985315,-5260.860459159253,7335.233764953522,0.9948834592106174,-2.81873960176369e-05,0.0002658049436439644,0.10102886291708221
0.9550000000000001,-1.0563469983691132e-05,0.0005408783534240154,-0.0072606257989028125,-48.61332411698986,53.138943094443,4.9218034403178,-1653858.0501339263,5084356.365590858,3592577.791054662,-198.76880804388554,-5260.863346836222,7335.42291634324,0.9948852961367443,-2.836052393877303e-05,0.00026719900006926076,0.10101076839267044
0.96,-1.2130764476046161e-05,0.0005413537406103655,-0.00727688488927226,-48.60575654904769,53.11263819874734,4.924094743176096,-1653859.0432094058,5084330.061266982,3592614.4686420206,-198.46138381270248,-5260.866203495498,7335.6120270229485,0.9948871291133603,-2.852823396157274e-05,0.0002685410974785452,0.10099270962002573
0.965,-1.802860889825256e-05,0.0005324003741043283,-0.007277332158983319,-48.595471676577105,53.10011898938742,4.9161888977089365,-1653860.0347479894,5084303.756928939,3592651.1471747197,-198.15404954933996,-5260.869013809094,7335.801052730407,0.9948889658643183,-2.86999731198763e-05,0.00026988398031724167,0.10097461037496551
0.97,1.3364550453456279e-06,0.0005637548284634009,-0.0072678159486399534,-48.582074697331876,53.07262355263451,4.926451041016199,-1653861.024750062,5084277.452576767,3592687.8266524095,-197.84677951720187,-5260.871855181407,7335.990023202676,0.9948908024027221,-2.888412166451876e-05,0.0002712031051888186,0.10095650998846542
0.975,-4.843472406406142e-06,0.0005499631277734641,-0.007239859953802063,-48.58105948131291,53.04534068840107,4.9167370114828115,-1653862.0132161058,5084251.148210558,3592724.507074795,-197.53963796105793,-5260.874628036563,7336.178931004465,0.994892636188711,-2.902801202819786e-05,0.0002726051038762183,0.1009384332219845
0.98,-4.7921711862472285e-06,0.0005670679622008386,-0.007271472714970304,-48.560392280072485,53.02929082381553,4.912989019977283,-1653863.000146559,5084224.843830523,3592761.1884414,-197.232543346008,-5260.8773861452155,7336.367710864466,0.9948944625999512,-2.9183773959037475e-05,0.00027397124186808147,0.10092042596035884
0.985,3.133506010142212e-06,0.00054573956979196,-0.007236617983817667,-48.55593883798299,53.00825566198741,4.91204902915467,-1653863.9855418452,5084198.539436627,3592797.8707517805,-196.92557118055714,-5260.880172036616,7336.556441359,0.9948962966461217,-2.9343745502377424e-05,0.00027537993416880434,0.1009023400356448
0.99,2.732826852938143e-05,0.0005507384195100974,-0.0072252276386441504,-48.54923311222609,52.98906697403162,4.902878898890716,-1653864.9694024266,5084172.235028872,3592834.5540056257,-196.61866136951954,-5260.882929984471,7336.7450966700135,0.9948981215861156,-2.947859976129275e-05,0.0002767375793872367,0.10088434076576579
0.995,-1.592322484691628e-05,0.0005579722408526773,-0.0072422244543186515,-48.53751856663876,52.95640329855672,4.911019762453377,-1653865.9517286052,5084145.930607295,3592871.238202525,-196.31181008660607,-5260.885701247241,7336.93366309645,0.9948999433246721,-2.9554528584869504e-05,0.0002781137609012948,0.1008663697762042
1.0,1.2042139657588483e-05,0.0005374342490804126,-0.007241079154863519,-48.53616288740696,52.94009508116906,4.908273978351672,-1653866.9325208461,5084119.626172049,3592907.9233420286,-196.0050862746727,-5260.888396893815,7337.122138488832,0.9949017690137323,-2.9739870610358123e-05,0.0002794970268363286,0.10084835650767118
1.0050000000000001,1.0948339899187332e-05,0.0005361895789028544,-0.007255224888547976,-48.516692898048326,52.91766735106152,4.90199074537448,-1653867.911779562,5084093.321723366,3592944.6094237505,-195.69840004730298,-5260.8910761888055,7337.310550212278,0.9949035941025126,-2.9850476792446833e-05,0.00028083626020614295,0.10083034603653244
1.01,-2.3576995713580126e-05,0.0005438246872365613,-0.007233023632232178,-48.51308729104833,52.889586227839196,4.90324852378002,-1653868.8895051598,5084067.017261236,3592981.2964473227,-195.3918391129254,-5260.893776136558,7337.498878560697,0.9949054224294155,-2.996349970822973e-05,0.00028217212088999427,0.10081230034886214
1.0150000000000001,-8.934866073851017e-06,0.0005346187132867856,-0.007240985227790743,-48.50192166288657,52.86975865889658,4.899745710132588,-1653869.8656981383,5084040.712785741,3593017.98441229,-195.08535218817073,-5260.896421541876,7337.687108505668,0.9949072448248182,-3.016430484382196e-05,0.0002835182722242969,0.10079430987210207
1.02,5.446595025907357e-07,0.0005361365987710334,-0.007256817104443808,-48.48404856688915,52.85057163910117,4.89286330545005,-1653870.840358899,5084014.408297024,3593054.6733182278,-194.77895217412296,-5260.899065604925,7337.875266478297,0.9949090689065769,-3.0326376935997027e-05,0.0002848452147478206,0.10077629954985792
1.025,-1.9316943522147075e-06,0.0005256757336574423,-0.0072426456284963164,-48.480155996118015,52.82837998070449,4.902529591540011,-1653871.8134879386,5083988.103795017,3593091.363164772,-194.47266366406754,-5260.901736856571,7338.063351201243,0.9949108966481413,-3.0465264544538138e-05,0.00028617831965083526,0.10075824980927686
1.03,-8.957849701737333e-08,0.0005429403861655938,-0.007235001283713586,-48.46830319684668,52.797209519984264,4.891582693521907,-1653872.7850857244,5083961.799279839,3593128.0539516127,-194.16645061926064,-5260.904334532075,7338.251385173178,0.9949127204986956,-3.060766633652523e-05,0.00028748478268426003,0.10074023528637813
1.035,-1.0151444267763203e-05,0.0005504997924512407,-0.0072414068242904125,-48.469232765540085,52.77905649566419,4.8915816154062846,-1653873.755152697,5083935.494751664,3593164.7456782777,-193.86033841950405,-5260.906935563794,7338.439280859724,0.9949145420841368,-3.0749828875998335e-05,0.0002888346522019062,0.10072223974130139
1.04,-9.554189019375044e-06,0.000516097829777547,-0.007220764183351257,-48.45188326364596,52.75940908019769,4.890454851405359,-1653874.7236891938,5083909.190210573,3593201.438344258,-193.55426035510877,-5260.909500471579,7338.627111134834,0.9949163649486554,-3.091892627297012e-05,0.0002902007899059768,0.1007042282373259
1.045,7.952757708507035e-06,0.0005467585776465941,-0.007221422260680482,-48.43517419708125,52.72892231542831,4.880261468066687,-1653875.6906955938,5083882.885656653,3593238.1319492403,-193.24829964942876,-5260.912067721893,7338.814881940551,0.9949181823142619,-3.107786207820014e-05,0.000291481511786514,0.10068626804673968
1.05,-1.0845980839538687e-05,0.0005328064789355701,-0.007219809164094304,-48.434764947385695,52.703207562605904,4.884692717478499,-1653876.6561724963,5083856.581089866,3593274.826492754,-192.94246126125444,-5260.914646853959,7339.002523316311,0.9949199994985313,-3.120097119444953e-05,0.00029284290263208146,0.10066830617118949
1.055,-2.6085080860063245e-05,0.000544904594199003,-0.007232049673582234,-48.416982363501845,52.67940198648642,4.87441167655297,-1653877.6201203552,5083830.276510355,3593311.521974267,-192.63668228378705,-5260.91715773852,7339.190082057893,0.9949218159595641,-3.136732588651216e-05,0.0002941648593594917,0.10065034828975841
1.06,-3.6050582036701764e-06,0.0005434122759650849,-0.007211951718488795,-48.405734221290984,52.65554140175956,4.879141963272335,-1653878.5825396066,5083803.971918215,3593348.21839332,-192.33101829797596,-5260.919698361079,7339.377539145292,0.9949236351640445,-3.157463805154572e-05,0.00029551307217569724,0.10063235993968192
1.065,4.590241538554444e-06,0.0005418643352117609,-0.00720555819560657,-48.39649407227421,52.637908546893264,4.874802600999188,-1653879.5434308008,5083777.667313479,3593384.9157494954,-192.02545936597346,-5260.922196060865,7339.564930927053,0.994925448988968,-3.1725645154804334e-05,0.00029686323016910927,0.10061442152995069
1.07,4.82414444612243e-06,0.0005542043496297697,-0.0072167461551724725,-48.3886182981306,52.61043877269124,4.874681675705934,-1653880.502794383,5083751.362696247,3593421.614042462,-191.7199736257812,-5260.924696716873,7339.752255653493,0.9949272608825173,-3.185587385910395e-05,0.00029821159977188786,0.10059649898409301
1.075,1.1869426258956108e-05,0.0005503683370340033,-0.0071789969605790425,-48.37798586275407,52.58464677353957,4.8766350853432305,-1653881.4606307624,5083725.058066609,3593458.313271811,-191.41457805670458,-5260.927158304642,7339.939484033358,0.9949290752553352,-3.1988632508607555e-05,0.00029959072075257364,0.10057854857618007
1.08,-3.486368805371455e-05,0.0005226388531209302,-0.0072028826469080764,-48.36476598978103,52.55813114148387,4.865506243966101,-1653882.4169404192,5083698.753424758,3593495.0134370984,-191.10928467515205,-5260.929582143782,7340.1266309816065,0.9949308798156258,-3.2102874433678216e-05,0.0003009620747639275,0.10056069202496508
1.085,-1.5822013836531085e-05,0.0005559139745131714,-0.0072137448818341545,-48.361014869038996,52.53472069668629,4.86630505235971,-1653883.3717238547,5083672.448770745,3593531.7145378236,-190.8040895615309,-5260.9320233797125,7340.313659068327,0.9949326900745894,-3.232640362614555e-05,0.0003022527056751215,0.10054277606693932
1.09,-4.631292894751539e-06,0.0005558280087815662,-0.007199342203878891,-48.3430100964071,52.508355450886135,4.859327291446512,-1653884.3249814785,5083646.144104629,3593568.416573487,-190.49895995336962,-5260.9344228371065,7340.500606397528,0.9949345027153282,-3.251094198822245e-05,0.00030363088813182605,0.1005248330410198
1.095,-1.3672602721798102e-05,0.0005496089606862822,-0.0071855005414924325,-48.34648231224318,52.48269126164051,4.854485160024314,-1653885.2767137664,5083619.839426488,3593605.119543631,-190.19395513843543,-5260.936833529584,7340.687451061368,0.9949363114126074,-3.266761271680393e-05,0.00030501167019770283,0.1005069257980922
1.1,-3.8134653585712186e-06,0.0005361495528675317,-0.007185688508478488,-48.323233090643306,52.45327844378944,4.862993557541008,-1653886.2269211048,5083593.534736392,3593641.8234477188,-189.888980247657,-5260.939204628964,7340.874184093763,0.9949381163123513,-3.284519905517548e-05,0.000306374712617248,0.10048905295881035
1.105,2.474828884127754e-05,0.000535344114735888,-0.00719337517191974,-48.318005587059204,52.43996131036071,4.859730444361799,-1653887.1756040028,5083567.230034557,3593678.528285303,-189.5841789961568,-5260.9415296349525,7341.060849679732,0.9949399209475305,-3.299488114004995e-05,0.00030770675356572136,0.10047117961292995
1.11,-4.602880556087632e-06,0.0005334125923355557,-0.0071971192981454025,-48.30156664687884,52.41441545343886,4.856232534472066,-1653888.1227630165,5083540.925321096,3593715.234056091,-189.2794264959077,-5260.943854990286,7341.247465356908,0.9949417271931947,-3.3073323745407435e-05,0.0003090439644566368,0.10045328709308499
1.115,-1.4600718801486995e-06,0.0005329813239579974,-0.007205141051308147,-48.29754774386352,52.38973810949645,4.855134806277835,-1653889.0683985697,5083514.620596017,3593751.9407597296,-188.9747947270446,-5260.946176470549,7341.433990095714,0.9949435340544857,-3.32242909212641e-05,0.00031036899950323137,0.10043538525042489
1.12,-1.1479160742613543e-05,0.000556752054765999,-0.007172834941052777,-48.28501336097403,52.366950805233955,4.843834825951405,-1653890.0125111302,5083488.315859422,3593788.648395764,-188.67022948027787,-5260.948461208978,7341.620423845913,0.994945342606311,-3.3367338731118324e-05,0.00031169375018617445,0.10041746341965366
1.125,2.0797164464089226e-05,0.0005406250920055776,-0.007164714469358882,-48.26939957074759,52.33218811976937,4.850885937113612,-1653890.9551010851,5083462.011111341,3593825.356963706,-188.36575246231325,-5260.9507711927745,7341.806752800183,0.9949471427053073,-3.354124996179394e-05,0.000313075114678831,0.10039962191911911
1.1300000000000001,-8.879191476732867e-06,0.0005462308999659617,-0.007164069364804222,-48.267804174088674,52.31625703114419,4.848422646085143,-1653891.8961690224,5083435.706351881,3593862.0664630434,-188.06142253732267,-5260.953012849061,7341.992982148837,0.9949489404599546,-3.3630823879582356e-05,0.0003144244673895897,0.1003818005608378
1.135,2.3591028745597e-05,0.0005154909754832916,-0.0071828055648145185,-48.248087601589575,52.29409261145356,4.845513840024057,-1653892.8357154059,5083409.401581254,3593898.776893374,-187.75713076436793,-5260.955238188054,7342.179150181996,0.9949507377247876,-3.3795620229413765e-05,0.0003157803163697557,0.10036398079763956
1.1400000000000001,4.070458695305113e-06,0.0005455301966469718,-0.007188464490101985,-48.24746242161484,52.27734896119548,4.850459260301828,-1653893.7737406553,5083383.096799479,3593935.4882543627,-187.45296904813316,-5260.957471775107,7342.3652452882125,0.9949525393959843,-3.3871952732735696e-05,0.0003170678489898481,0.10034611437495913
1.145,-1.580921730159769e-06,0.0005218523582929656,-0.00718927892369335,-48.23083441396937,52.24096306688241,4.840125880183585,-1653894.710245208,5083356.792006659,3593972.200545715,-187.14885209688316,-5260.959656026581,7342.551295695353,0.9949543421385117,-3.4004380610395206e-05,0.00031842520299291745,0.10032823385674386
1.1500000000000001,-9.614510893513562e-06,0.0005497745535408326,-0.007181668016477068,-48.21889547154996,52.21853429640692,4.835171654616749,-1653895.6452295068,5083330.487202922,3594008.913766935,-186.84486736971564,-5260.961838796846,7342.737192123202,0.9949561447805431,-3.414492739982211e-05,0.00031972224342058706,0.10031035128664505
1.155,-8.7587458585629e-07,0.0005318233739874223,-0.007195181411459084,-48.19912602839689,52.184153194527774,4.8321977183330445,-1653896.5786941145,5083304.182388272,3594045.627917421,-186.54097565050853,-5260.964021369691,7342.923002407121,0.994957945168085,-3.4312452980017136e-05,0.0003210867231631578,0.10029248761933157
1.16,-2.8083221059931757e-06,0.0005323289489140496,-0.00716240334589161,-48.19819512636538,52.16788868055146,4.829935133477384,-1653897.5106396438,5083277.877562758,3594082.3429966522,-186.23723607180963,-5260.966184484046,7343.108690000948,0.9949597486358659,-3.445375203630712e-05,0.0003224087410193807,0.10027459030082028
1.165,6.571562644520697e-06,0.0005214187007573049,-0.007177268183528478,-48.17724274121584,52.13891254521393,4.831127768026842,-1653898.4410665652,5083251.572726475,3594119.0590041648,-185.93353249849403,-5260.9683284045805,7343.294314933447,0.9949615435638222,-3.459995817114432e-05,0.000323731534722802,0.10025677448348723
1.17,1.6333897981792536e-05,0.0005309119198341218,-0.0071543535343368036,-48.168517446086604,52.11817533116966,4.827956551179218,-1653899.3699753513,5083225.267879526,3594155.775939581,-185.62998198465317,-5260.970451259618,7343.479851713925,0.9949633419057724,-3.472011019810147e-05,0.00032502953983495225,0.10023892165226647
1.175,-2.143702129261055e-06,0.0005359605099240662,-0.007156011074251532,-48.1538632200617,52.091610587650216,4.825225468827465,-1653900.2973665795,5083198.963021987,3594192.4938024892,-185.32650928368608,-5260.972564155317,7343.665311524589,0.9949651341774696,-3.4818339654641324e-05,0.0003263536067585872,0.10022112577803553
1.18,-3.322089178065061e-06,0.0005473556514303777,-0.007157853351745977,-48.1505365309998,52.056049919879364,4.81222369754964,-1653901.2232407327,5083172.658153917,3594229.21259246,-185.02315200738516,-5260.974664055816,7343.850676797145,0.994966926538602,-3.4963796810475034e-05,0.00032768560174601145,0.10020332576320767
1.185,2.141718353962995e-06,0.0005245350136481997,-0.00715539556687257,-48.12315164113034,52.03631061413072,4.8146703148488985,-1653902.1475982685,5083146.353275388,3594265.9323088345,-184.71986228277308,-5260.976747593045,7344.0358729142135,0.9949687190314533,-3.5115041182312983e-05,0.00032904564574344855,0.10018552113357379
1.19,9.782440764348473e-06,0.0005455831133014399,-0.007140460304311159,-48.12139154950923,52.00789262999079,4.810350415564696,-1653903.070439773,5083120.04838642,3594302.6529510845,-184.41673948682285,-5260.978839468544,7344.221027186493,0.9949705106076864,-3.5246976983364476e-05,0.0003303502937848888,0.10016772258274617
1.195,1.0653728689844138e-05,0.0005475282579462855,-0.007160243021418582,-48.10278704683589,51.980405395945354,4.814710395056653,-1653903.9917658104,5083093.743487086,3594339.374518813,-184.11367552127288,-5260.980893964877,7344.406064288502,0.9949722981076253,-3.536516555524879e-05,0.0003317092120168564,0.10014996114195214
1.2,7.231250073816532e-06,0.000528715859335343,-0.007163220402793044,-48.091276837270925,51.96092485322422,4.810162144668642,-1653904.9115768878,5083067.438577568,3594376.0970115396,-183.81075543063855,-5260.982913440967,7344.5910261574945,0.9949740902393248,-3.54816902680697e-05,0.0003330731849543818,0.10013215045993516
1.205,-2.038277819185017e-05,0.0005437618861053362,-0.007146323456682082,-48.07107400302805,51.93355776257232,4.812694573318606,-1653905.8298735803,5083041.1336579425,3594412.820428891,-183.50792158985936,-5260.984936895444,7344.775914576529,0.9949758828109588,-3.5602021327712134e-05,0.0003343895061470875,0.10011433234411321
1.21,6.766349860458717e-06,0.0005289342972581389,-0.007152234923227599,-48.06706146411127,51.91577425241781,4.807685951842383,-1653906.746656475,5083014.82872826,3594449.544770489,-183.20523623097512,-5260.986936109383,7344.960724456755,0.9949776708183654,-3.5794792288181e-05,0.0003357363434205313,0.10009655624796039
1.215,-1.647160119527541e-05,0.0005472684953270509,-0.007125700523333892,-48.052251535921144,51.875836061648045,4.799628571783206,-1653907.6619260649,5082988.523788595,3594486.2700359505,-182.90259981102133,-5260.988929683825,7345.145460266588,0.9949794600003029,-3.591632578195293e-05,0.0003370530910931417,0.10007876539374796
1.22,2.0905954209034186e-05,0.0005315203830445674,-0.007136855301819196,-48.04367582626035,51.84714751542196,4.7948332557689675,-1653908.575682806,5082962.218839019,3594522.9962246823,-182.600096607195,-5260.9909008013465,7345.3300323889425,0.9949812422071457,-3.610022727521225e-05,0.00033840963235292856,0.10006104052836803
1.225,-9.213958065105855e-06,0.0005377615296759539,-0.007143632069503979,-48.02823516128415,51.82393488354103,4.795165291645309,-1653909.487927254,5082935.913879642,3594559.7233359893,-182.29768262571312,-5260.992849675454,7345.514490469961,0.9949830269030204,-3.6187223846676124e-05,0.0003397363498997206,0.10004328785381263
1.23,-4.61230921756643e-06,0.0005410022517511322,-0.0071169686974381155,-48.01939602594674,51.80070390698852,4.789462175050684,-1653910.3986599243,5082909.608910562,3594596.4513694076,-181.99538544181888,-5260.994782712907,7345.698876766139,0.9949848129669698,-3.6350709128069764e-05,0.0003410710580743588,0.10002551831529542
1.235,1.4308720250150912e-05,0.0005439683998772829,-0.007132672810099559,-48.00486346674391,51.77184833091699,4.795884894574587,-1653911.307881307,5082883.3039318295,3594633.180324522,-181.6931677074603,-5260.996710176194,7345.883168878347,0.9949865920430556,-3.6503535622880995e-05,0.0003424149804419853,0.10000781506471983
1.24,1.2678492931980603e-05,0.0005307190572848864,-0.007118924050840554,-47.983975870579044,51.74449817691417,4.789710833297747,-1653912.215591928,5082856.998943597,3594669.9102009,-181.3910806035393,-5260.998582958682,7346.067382523416,0.9949883747271542,-3.661005171802838e-05,0.00034377101008827005,0.09999007270230911
1.245,-5.84706536886697e-07,0.0005407618746953482,-0.007108829376737043,-47.979109567094746,51.71763945443335,4.784373613982827,-1653913.1217924638,5082830.693945971,3594706.640998091,-181.08913378674637,-5261.000467153395,7346.251493844861,0.9949901536680787,-3.671729912160287e-05,0.0003450936760121923,0.09997236451023811
1.25,-1.3978163978595172e-06,0.0005362420370637575,-0.007127657648707701,-47.97116913324968,51.68867663542667,4.781904844932894,-1653914.0264834373,5082804.388938984,3594743.3727155607,-180.78725553365615,-5261.002327805031,7346.435493963605,0.9949919297596541,-3.686003969719446e-05,0.0003464380091305301,0.09995468140714096
1.2550000000000001,-6.385673749434851e-06,0.0005369279155806225,-0.007107126204467194,-47.950836113788064,51.661084005529865,4.776622921688246,-1653914.9296652437,5082778.083922776,3594780.1053527575,-180.4854670786219,-5261.004155051733,7346.619384865867,0.9949937102431022,-3.700368971513126e-05,0.0003477708942132469,0.09993695143838266
1.26,-1.2718686277805801e-05,0.0005223803878567779,-0.00714353114713049,-47.94568288024249,51.63422638904081,4.780867641131477,-1653915.8313384564,5082751.778897418,3594816.838909156,-180.1838179696057,-5261.005988502204,7346.803174456889,0.9949954852790537,-3.7159900448941926e-05,0.000349104241018459,0.0999192725137215
1.2650000000000001,1.032076414378795e-05,0.0005126534693942217,-0.007086531258512878,-47.927683147879115,51.61461427588798,4.77708314678196,-1653916.7315036287,5082725.473863044,3594853.5733842915,-179.8822509782262,-5261.007761224667,7346.986879847643,0.9949972691035277,-3.7328262294909444e-05,0.00035039981554424427,0.09990150300717365
1.27,2.794365305411099e-05,0.0005097738502154828,-0.007088315565334902,-47.908734241595404,51.584548855806204,4.778690412344333,-1653917.6301612575,5082699.168819771,3594890.3087777877,-179.58080047120663,-5261.009547851847,7347.170518605358,0.9949990383862495,-3.7436834387066356e-05,0.0003516769538238899,0.0998838752364083
1.2750000000000001,-7.744728263263595e-06,0.0005557157914262565,-0.00711605429861916,-47.900696431397584,51.557611981298855,4.771034653334709,-1653918.5273119994,5082672.863767639,3594927.0450892444,-179.2794963230173,-5261.011304962505,7347.354064055669,0.9950008078047059,-3.750085207356749e-05,0.0003529513293858632,0.0998662429804379
1.28,-5.979105851332385e-06,0.0005297761488372791,-0.007118731052597371,-47.888775262881246,51.52525697428348,4.771934362881569,-1653919.4229564203,5082646.558706742,3594963.78231814,-178.9782720659947,-5261.013053913153,7347.537494040241,0.9950025837892335,-3.7665139267514444e-05,0.0003543310727455103,0.09984854171983465
1.285,2.9956781167417563e-06,0.0005032988430663069,-0.007082608210640026,-47.87592910729869,51.490069142084636,4.760373321803288,-1653920.317095015,5082620.253637216,3595000.520463909,-178.67716584031552,-5261.014756496244,7347.720813702491,0.9950043601482214,-3.781856173473403e-05,0.00035564673144883243,0.09983083376987027
1.29,-1.5946259296155754e-05,0.000539333615625934,-0.0070738485476592025,-47.85338716012039,51.46335268011783,4.75131548274109,-1653921.209728357,5082593.948559182,3595037.2595258867,-178.37617085429787,-5261.016457214123,7347.903977427088,0.9950061272009554,-3.7943019070796794e-05,0.00035689877076846687,0.099813215638767
1.295,7.576674518794287e-06,0.0005273528232338003,-0.007105498443853621,-47.835543542801446,51.43936259712134,4.773859223663751,-1653922.1008570804,5082567.643472575,3595073.999503417,-178.07531861865667,-5261.018185478909,7348.087034532045,0.9950078917206528,-3.8123578804910455e-05,0.0003582357212161783,0.09979561927951765
1.3,-5.452846597792245e-06,0.0005469769079623692,-0.007092111304538314,-47.83468733654547,51.410608374331254,4.756572636941284,-1653922.9904819364,5082541.338377577,3595110.740396205,-177.77462374097024,-5261.019813385334,7348.270080605513,0.9950096638352744,-3.824266403384506e-05,0.00035954873479111213,0.09977794413907391
1.305,1.04942220645335e-05,0.0005245637202766204,-0.007079399147727059,-47.8170081393718,51.39154741463688,4.76385234424836,-1653923.8786034142,5082515.033274413,3595147.4822038338,-177.47396738565314,-5261.021452214675,7348.452970993388,0.9950114322764775,-3.839904359297834e-05,0.0003609073147698501,0.09976030227769256
1.31,-1.9723780002917647e-05,0.0005290003346949327,-0.0070777962600785515,-47.80706795800348,51.36196877569965,4.758127215269494,-1653924.7652219308,5082488.728163129,3595184.22492583,-177.17343923012967,-5261.023061827204,7348.635827575004,0.9950131972549918,-3.851015301519329e-05,0.0003622141196210504,0.09974269199444376
1.315,7.4853849422665724e-06,0.0005352878688656886,-0.00705637773859235,-47.78201194451368,51.32515993681116,4.745990191045613,-1653925.6503380456,5082462.423043841,3595220.9685618114,-176.87300665712823,-5261.024653444303,7348.818564872186,0.9950149615135571,-3.869753555060034e-05,0.0003635244256750683,0.09972508569395808
1.32,-1.6896640081767404e-05,0.00051778099223393,-0.0070598526105432585,-47.77263401229155,51.29363671968508,4.746890714370082,-1653926.5339524176,5082436.11791654,3595257.7131110933,-176.5727422041561,-5261.026266639251,7349.001147960547,0.9950167201167754,-3.8818782355155574e-05,0.00036485715775426983,0.09970753261620377
1.325,-2.9179425821555882e-06,0.0005328380266131237,-0.007082329420068138,-47.76395946249771,51.27192484766629,4.743139171229579,-1653927.4160657302,5082409.8127812985,3595294.4585730177,-176.27258277086628,-5261.027830062517,7349.183621897893,0.9950184792882433,-3.8996319704874496e-05,0.00036614026261571275,0.0996899708872816
1.33,-1.8885651542223347e-05,0.0005260633148903252,-0.007092723233442557,-47.74954004304964,51.24883986151578,4.7434620142518975,-1653928.296678441,5082383.507638265,3595331.204947105,-175.9725016391544,-5261.0293832118505,7349.366012930776,0.9950202437364092,-3.9142857548980556e-05,0.00036746430407931177,0.09967235320066857
1.335,9.380633218783093e-06,0.0005417389532272814,-0.007041988397449333,-47.7345171940501,51.212478636853604,4.737237039697981,-1653929.1757910259,5082357.202487511,3595367.952232966,-175.67253230729403,-5261.03091861117,7349.548331627915,0.9950220104650382,-3.932743728452049e-05,0.00036876751312370617,0.09965470964278303
1.34,-2.7800104999339404e-06,0.0005279767973980676,-0.007078319235276783,-47.71623949307501,51.182414011772046,4.729052429350846,-1653930.0534040888,5082330.897329132,3595404.700430061,-175.37269283144198,-5261.03243279249,7349.730506225051,0.9950237642296849,-3.9445561673608834e-05,0.00037011676322443773,0.09963719223170586
1.345,-2.9846068049126032e-05,0.0005100068899261472,-0.007048733367425637,-47.703986211928225,51.15082197738643,4.729194585066619,-1653930.9295182808,5082304.592163164,3595441.449537725,-175.0729840061441,-5261.033954509284,7349.912559454147,0.9950255267438554,-3.959054193449925e-05,0.00037142874631520666,0.09961958442690143
1.35,1.1923642860668963e-05,0.0005320947927977264,-0.00702734585617234,-47.68881844702864,51.120847972469825,4.7230114501897384,-1653931.8041342215,5082278.28698969,3595478.1995553826,-174.77339222604112,-5261.035435174594,7350.0945034763,0.9950272815917415,-3.9798347868864994e-05,0.0003726892901527256,0.0996020502145098
1.355,2.719991917988582e-05,0.0005293478342731007,-0.007075912156219256,-47.67630972232142,51.09991637952469,4.7242130990770335,-1653932.6772525008,5082251.981808828,3595514.950482465,-174.47391950762358,-5261.03690940185,7350.276329494966,0.9950290307878626,-3.9907728859763596e-05,0.0003740151820391908,0.0995845691328906
1.36,-1.100389536452714e-05,0.0005223032128094083,-0.007036981464075003,-47.660640403825916,51.067468596492354,4.714661500530613,-1653933.5488736676,5082225.676620646,3595551.7023185208,-174.17454722179934,-5261.038363359118,7350.458092731878,0.9950307917682143,-3.9978470516891503e-05,0.0003753380389081039,0.09956696719394025
1.365,1.994277977267451e-06,0.0005421000270967198,-0.007025027876912844,-47.63590525106856,51.04533879629844,4.7241217988706525,-1653934.4189982766,5082199.371425189,3595588.4550630497,-173.8752963838983,-5261.0398194267245,7350.639718973162,0.9950325427494433,-4.01424570315919e-05,0.000376633865917487,0.0995494621034771
1.37,-1.7617572291590667e-05,0.0005295195613172084,-0.007048238817581565,-47.63082409159246,51.01355125087532,4.72149233850091,-1653935.2876270516,5082173.066222528,3595625.2087156237,-173.57621359525814,-5261.041244949324,7350.821310654255,0.9950342904292065,-4.027902517041502e-05,0.00037798217509850656,0.09953198670337488
1.375,5.24971528056212e-06,0.0004987653919278452,-0.007038054714073225,-47.61919383155147,50.99339130638807,4.714745810235615,-1653936.1547606166,5082146.761012853,3595661.963275847,-173.27721237933213,-5261.0426251258195,7351.002778628307,0.9950360435847461,-4.046127099193145e-05,0.0003792943068214339,0.09951445355288678
1.3800000000000001,9.798460285401743e-06,0.0005142816287778366,-0.0070350717971800125,-47.59919879663278,50.95322056615022,4.714673779587352,-1653937.0203993877,5082120.455796249,3595698.7187432037,-172.97829604495493,-5261.044016368102,7351.184163990564,0.9950377939279526,-4.0578971494603456e-05,0.00038053562475278584,0.09949694568668327
1.385,1.880669925475437e-05,0.0005273536227373015,-0.007035977174239088,-47.581585177158125,50.9228205448431,4.709670800209972,-1653937.884543994,5082094.1505728,3595735.475117141,-172.67954648722562,-5261.045363423343,7351.365410924948,0.9950395432053631,-4.068921325934899e-05,0.0003818166724391734,0.09947944520391623
1.3900000000000001,7.011938152835074e-06,0.0005023142785646072,-0.007038912340626216,-47.56496883291132,50.89389478691508,4.696222837328061,-1653938.747195183,5082067.845342633,3595772.232397027,-172.38092920530778,-5261.046703303904,7351.546543393438,0.995041292386858,-4.078029797744385e-05,0.000383132478128476,0.09946194242806135
1.395,-9.669701881997123e-06,0.0005256299249624403,-0.007030340379979081,-47.54998275799226,50.86599635207893,4.696286286702805,-1653939.6083535717,5082041.540105699,3595808.9905822426,-172.08242624151475,-5261.048070615547,7351.7275429609945,0.9950430420113263,-4.0894500025546744e-05,0.0003843830626212215,0.09944443233357532
1.4000000000000001,3.7820917661000098e-06,0.0005379681099078902,-0.007033255322330331,-47.535177150842934,50.8305394841961,4.701326453919277,-1653940.4680197518,5082015.234861994,3595845.7496722257,-171.78404577466546,-5261.049411176484,7351.908450226328,0.995044789171201,-4.10559877263855e-05,0.000385687500809537,0.09942694354548917
1.405,1.3687953805282854e-05,0.0005420336585053548,-0.007011905297651892,-47.52473694266726,50.799970266081864,4.693714518186817,-1653941.3261943834,5081988.929611747,3595882.5096664717,-171.48580689066122,-5261.050687596924,7352.089248237529,0.9950465367358524,-4.118708225212983e-05,0.00038702597487221067,0.09940944746101811
1.41,-1.3454811004150789e-05,0.0005257386679867684,-0.007029393157197358,-47.50843812893036,50.77111310199908,4.691171924984734,-1653942.1828780633,5081962.624355148,3595919.270564387,-171.18766500658805,-5261.051952030484,7352.2699179142355,0.9950482786830879,-4.129452450813877e-05,0.00038837702637905587,0.09939200444639197
1.415,-6.2076581906094496e-06,0.0005001727342165902,-0.007029229535005739,-47.495774086858496,50.74853088807801,4.680514239314211,-1653943.0380713504,5081936.319092267,3595956.0323653948,-170.88964985693858,-5261.053200369768,7352.450485159483,0.9950500246804175,-4.146545565517429e-05,0.0003896807957700102,0.09937451792584487
1.42,4.8222155482910645e-06,0.0005071265843878457,-0.007025958048861838,-47.47612351162367,50.71410600804024,4.6823702168580414,-1653943.8917747836,5081910.013823086,3595992.795068982,-170.59172347337642,-5261.054471660361,7352.6309497895945,0.9950517703538254,-4.161200692516729e-05,0.0003909227670551728,0.09935703177706606
1.425,2.2682650928476035e-05,0.0005168228650772622,-0.0070042975686372974,-47.466938184513594,50.67721449851697,4.684663406044482,-1653944.7439889784,5081883.708547648,3596029.5586746177,-170.29395444746967,-5261.055703624772,7352.81130437241,0.9950535149002523,-4.173284403122664e-05,0.0003921847769004768,0.09933955372420344
1.43,-1.84129720735715e-05,0.0004977899415413694,-0.006996923766656716,-47.44403233658856,50.65267113812504,4.682173297743444,-1653945.5947146164,5081857.40326622,3596066.3231817074,-169.996300760414,-5261.0568674502265,7352.991531554384,0.9950552537519933,-4.1811637725084034e-05,0.0003934753452990512,0.09932212950544278
1.435,1.0889608320898828e-06,0.0005198629775678821,-0.006998645540527884,-47.42990056050045,50.6239472493619,4.6807796418641,-1653946.4439523579,5081831.097978956,3596103.0885897344,-169.6987957888074,-5261.058038381134,7353.171679332344,0.9950569904808141,-4.1987929215229314e-05,0.00039470836305887795,0.09930472364186518
1.44,-8.431174350292075e-06,0.0005125210019262688,-0.007004863269334598,-47.41455485630385,50.58207432033268,4.673261700361116,-1653947.2917028698,5081804.792685899,3596139.8548982493,-169.4014089845449,-5261.059184593717,7353.35172656186,0.9950587273111963,-4.212118844664819e-05,0.00039600113192366713,0.09928731344301508
1.445,-1.79844291793571e-06,0.0005212480416080119,-0.006985123777230417,-47.392169802033074,50.55913218649199,4.6741134610993615,-1653948.1379667958,5081778.487387181,3596176.622106575,-169.10416143355283,-5261.060302396271,7353.531603699619,0.9950604653846515,-4.227631414206407e-05,0.0003972732726977566,0.09926988775626241
1.45,-2.0728456735499958e-05,0.0005104816345172668,-0.006980452836209217,-47.389387864284714,50.53274109962319,4.671017696638589,-1653948.9827448537,5081752.182082883,3596213.390214126,-168.80706166067716,-5261.061416772658,7353.711416815629,0.9950621982453333,-4.241708612811027e-05,0.00039856877134265264,0.09925251113644656
1.455,1.8082887653011188e-05,0.0005146610031854923,-0.006972954228552206,-47.370694825119784,50.50162774724815,4.66422081952442,-1653949.8260375645,5081725.876773103,3596250.1592204804,-168.51002272767826,-5261.06249524862,7353.891124827304,0.9950639296508313,-4.260227331748535e-05,0.00039983279012045846,0.09923514612591475
1.46,3.890185642868881e-07,0.0005109822778469692,-0.006991412913749697,-47.35863720845662,50.477520181856846,4.6691924644622125,-1653950.6678454208,5081699.57145793,3596286.9291250706,-168.21311973279708,-5261.063574066277,7354.070711157555,0.9950656588916221,-4.26919404268568e-05,0.00040111683504572075,0.09921779969977572
1.465,-7.032655667316155e-06,0.0004995960145939175,-0.006987622371232145,-47.33126412642738,50.43200905469081,4.660211535335003,-1653951.5081690338,5081673.266137471,3596323.699927428,-167.9163254912717,-5261.064609360209,7354.250231781355,0.995067392407962,-4.2824729949544265e-05,0.00040238733757798345,0.099200407342369
1.47,-5.8193117453565035e-06,0.0005106738108006252,-0.006967061614120902,-47.31941634050745,50.40985695513495,4.6540683906073355,-1653952.34700917,5081646.9608118525,3596360.47162694,-167.61972906986696,-5261.065638169681,7354.4295732048395,0.9950691246894876,-4.2973154506101865e-05,0.0004036276745615866,0.09918302439281286
1.475,-2.776557085894793e-06,0.0005266249570780712,-0.006959419933988729,-47.30992565943737,50.37898013713393,4.650073017357942,-1653953.1843665496,5081620.655481079,3596397.244222937,-167.3232226713131,-5261.066671369692,7354.608825591031,0.9950708515574118,-4.3121286722930076e-05,0.0004048958724208712,0.09916569255894195
1.48,-1.2804074764320636e-05,0.0005248635443923422,-0.006968778755242916,-47.29089667046462,50.346643472458496,4.646368975389167,-1653954.0202416412,5081594.350145211,3596434.017714895,-167.02681403367788,-5261.067675560503,7354.78795754868,0.9950725762118144,-4.326579631640106e-05,0.0004062045066245268,0.09914837970008622
1.485,1.8132972569363673e-05,0.000534300657100062,-0.00695865624753806,-47.27483722092502,50.31054600546657,4.64435370556737,-1653954.854635049,5081568.044804358,3596470.792102218,-166.73054896091392,-5261.06866568556,7354.96697173904,0.9950743028833583,-4.343482406725732e-05,0.0004075062723280882,0.09913104353961326
1.49,9.069155824455282e-06,0.0005047069190780329,-0.006994492869901557,-47.25181319417616,50.27984713244867,4.640789388201607,-1653955.6875474786,5081541.739458643,3596507.5673842854,-166.4344229966004,-5261.069620381653,7355.145855176478,0.9950760267366737,-4.352921861746827e-05,0.00040883918263193554,0.09911373249799725
1.495,5.962737344470796e-06,0.0005340194519271387,-0.006958990529569247,-47.229467160922134,50.24592450549313,4.6291045592656035,-1653956.5189796756,5081515.434108161,3596544.3435605015,-166.13845578665678,-5261.0705723475185,7355.324631152206,0.995077759194615,-4.363886488520005e-05,0.0004100962229909853,0.09909633228813794
1.5,5.143975382848427e-06,0.00048227074376216533,-0.006951934905200844,-47.21979635433922,50.21174929922723,4.632587173332495,-1653957.348932414,5081489.128752869,3596581.1206302373,-165.84263961206338,-5261.071544842349,7355.503263309925,0.9950794825223839,-4.376346447223225e-05,0.0004114254181348495,0.09907902036692431
1.5050000000000001,7.543814367335529e-06,0.0005399079211062136,-0.006955770580436592,-47.201921856196435,50.181384071549026,4.634422129135464,-1653958.177406357,5081462.823392877,3596617.8985928525,-165.54693746809795,-5261.07245156028,7355.6817826783445,0.9950812038531409,-4.387727559360057e-05,0.00041262567592591253,0.09906172597436384
1.51,1.79973451753319e-06,0.0004988485506875359,-0.006949514142382686,-47.19257983685304,50.16043252928505,4.63436019111228,-1653959.0044021436,5081436.518028437,3596654.677447826,-165.25137724264715,-5261.073324553061,7355.860206768879,0.9950829257722577,-4.399939466738898e-05,0.0004139699116808638,0.0990444220008833
1.5150000000000001,8.158865169228736e-06,0.0005062974913811518,-0.006933314214466616,-47.1687710655745,50.12467795874054,4.621523920845004,-1653959.8299203403,5081410.212659687,3596691.457194747,-164.95590140515745,-5261.074175488578,7356.038561618288,0.9950846458817574,-4.412563008828887e-05,0.0004152105820044644,0.09902713357196005
1.52,-1.4281739287101317e-05,0.0005319142308580682,-0.00693905952811659,-47.15325907688307,50.094355951123724,4.622920354851047,-1653960.653961556,5081383.907286623,3596728.237833059,-164.6605848939818,-5261.075050195917,7356.216763085189,0.9950863616724089,-4.423787311481502e-05,0.0004164713591219303,0.09900988540638499
1.5250000000000001,-1.3948847985796682e-06,0.0005210916901715012,-0.006955246324700193,-47.13826557385341,50.05213439919449,4.616041489580223,-1653961.4765265158,5081357.601909277,3596765.019362132,-164.36539902858098,-5261.075888117275,7356.394866274559,0.9950880785551219,-4.441228873456587e-05,0.0004177903080440816,0.09899262293869501
1.53,1.4618153146219034e-05,0.0004995521187637613,-0.006954508697236721,-47.121895460410435,50.03324341615661,4.620144837892983,-1653962.2976158937,5081331.296527823,3596801.8017812963,-164.07035207627604,-5261.076693403564,7356.572799265895,0.9950897991546164,-4.4551983980156464e-05,0.00041908552084803015,0.09897532016049376
1.5350000000000001,-4.895254337636737e-06,0.0005092434658279577,-0.006932185771697624,-47.1059120226868,49.9908737471137,4.6166470231526535,-1653963.1172303306,5081304.991142391,3596838.585090016,-163.77542271224866,-5261.077479317721,7356.750688720318,0.9950915192934933,-4.4646512697667015e-05,0.00042033111132618793,0.0989580191728455
1.54,7.783699056482551e-06,0.0005112771969402953,-0.006942920427176227,-47.084163393888524,49.95882317117593,4.617108013278319,-1653963.9353704907,5081278.685753141,3596875.369287782,-163.48064130451317,-5261.078220953826,7356.9284176361125,0.9950932335960089,-4.4791959601136533e-05,0.0004215959860914303,0.0989407737080306
1.545,1.3834418080562454e-05,0.0005348431650923641,-0.006926253163180469,-47.059804813253564,49.92767473207802,4.603024039609581,-1653964.7520371447,5081252.380360243,3596912.154373935,-163.18602039678962,-5261.078938226373,7357.106043675283,0.9950949502520847,-4.4906379000755455e-05,0.000422869055070921,0.09892350149474353
1.55,4.157505792008642e-07,0.000524179491585122,-0.006935411707289558,-47.050190645158764,49.904919435210346,4.609144893643253,-1653965.5672310744,5081226.074963657,3596948.940347874,-162.89155142098346,-5261.0796958457495,7357.283531963316,0.9950966624611837,-4.501155623697602e-05,0.00042420224812930187,0.09890627070628852
1.555,5.7174448879163105e-06,0.0005188317124723917,-0.0069096794634747735,-47.03509135824826,49.86485712292891,4.593864182241324,-1653966.3809529007,5081199.7695634095,3596985.727209107,-162.59717914405468,-5261.080403367601,7357.460961112541,0.9950983766441749,-4.5147488589961234e-05,0.00042550559358828943,0.09888901711930462
1.56,-1.0506178507762388e-05,0.000508333834015469,-0.006919438429700969,-47.0204484182166,49.84044329686105,4.600038460405163,-1653967.1932031775,5081173.46415961,3597022.5149570233,-162.30293155442345,-5261.08111649366,7357.638205384731,0.9951000841721276,-4.52688821962626e-05,0.00042679694860604025,0.09887182751278319
1.565,-5.5648531470897044e-06,0.0005225259587659022,-0.006895438176752459,-46.99623401108442,49.8033207350989,4.587152733506116,-1653968.003982522,5081147.158752354,3597059.3035910064,-162.0088062398189,-5261.081785752561,7357.8153879718675,0.995101793822666,-4.5428051663149554e-05,0.0004280581761435342,0.09885461361718208
1.57,-2.481705179221681e-05,0.00053023455113891,-0.006922357450336151,-46.98250081896774,49.7686543967856,4.590017453403288,-1653968.8132916484,5081120.853341699,3597096.093110506,-161.71484434697683,-5261.082476550751,7357.992411690042,0.995103497228841,-4.557841002084662e-05,0.0004293559339823956,0.09883745939177499
1.575,1.2367554980161091e-05,0.0004955108941285149,-0.006907357486536904,-46.956977758142784,49.728776234622984,4.594443580456578,-1653969.621131296,5081094.54792773,3597132.88351484,-161.42101464151588,-5261.083111032847,7358.169322025293,0.9951052069775332,-4.577859682942937e-05,0.00043066810864714623,0.09882023818783872
1.58,2.4983898375856065e-05,0.0005133708028767167,-0.00689762486536964,-46.94046228874424,49.701631462010226,4.590673316345496,-1653970.427502286,5081068.242510715,3597169.6748034246,-161.12738137788395,-5261.083695142746,7358.3461117641045,0.9951069127630939,-4.587768248457005e-05,0.0004319030871486867,0.09880305423450118
1.585,-2.1680372725431796e-05,0.0004859422295162033,-0.006907816110358097,-46.92087954023308,49.66272501304276,4.575527012295494,-1653971.2324054167,5081041.937090796,3597206.46697571,-160.83387085448476,-5261.084272089301,7358.52280238658,0.9951086158288796,-4.594978262464169e-05,0.00043318561426698997,0.09878589444841042
1.59,1.9164847417531917e-05,0.0004793505636996304,-0.006917655444748092,-46.902907665257274,49.6482175627062,4.57484463913543,-1653972.0358413516,5081015.631667951,3597243.2600310077,-160.54050319036705,-5261.084865823059,7358.699316768799,0.9951103211379889,-4.6131209942874035e-05,0.00043438837963132964,0.09876870933294421
1.595,2.2723744249621027e-05,0.0005366605976805331,-0.006893210001010146,-46.88634568010464,49.59220849003245,4.571709081349233,-1653972.8378107252,5080989.326242106,3597280.0539687825,-160.24724622693714,-5261.085472339437,7358.875793175125,0.99511202858986,-4.6209406556351204e-05,0.00043558483071802034,0.09875149966618091
1.6,6.870790429642732e-07,0.0004999767914278502,-0.006897690903803264,-46.87238514242718,49.568122668280175,4.567918471418975,-1653973.638314252,5080963.020813418,3597316.848788403,-159.95416444183323,-5261.0860027933095,7359.052054948663,0.9951137296464848,-4.629287141270979e-05,0.0004369247378746349,0.09873435077421801
1.605,1.4042393608543806e-06,0.0004994658005764378,-0.006890062881035436,-46.84450158321595,49.52802390703399,4.572225053388996,-1653974.437352634,5080936.715382092,3597353.64448911,-159.66118842653367,-5261.086527907858,7359.228227896468,0.9951154315492842,-4.6422108740545645e-05,0.0004381679435443681,0.09871719073354474
1.61,-1.4042985398735963e-06,0.0005085701783055727,-0.006865898187676511,-46.82849472054333,49.49802622298772,4.566871601282652,-1653975.2349266543,5080910.409948253,3597390.441070382,-159.368419624186,-5261.087007355663,7359.4042808475015,0.9951171312730471,-4.654942744643021e-05,0.00043941005572146466,0.09870004963957664
1.615,-8.914533089308044e-08,0.0004940352473719209,-0.0068715246133640925,-46.810570895228864,49.46268587129978,4.561222293818761,-1653976.031037139,5080884.10451204,3597427.2385316296,-159.0757742683224,-5261.087478217274,7359.5802181796125,0.9951188247280371,-4.668595315973772e-05,0.00044067412737861905,0.098682968635046
1.62,1.820767926351033e-06,0.0005152291231352636,-0.00686579043189699,-46.79922932496416,49.43163512745997,4.562371042341754,-1653976.8256847498,5080857.799073511,3597464.036872222,-158.78327008416528,-5261.087933224772,7359.756018876334,0.9951205192922804,-4.68156273481324e-05,0.0004419023627480406,0.09866587360410392
1.625,8.911198171747973e-06,0.0004932261274812061,-0.006869477043863402,-46.774698779641334,49.39527626703351,4.566459639107624,-1653977.6188701214,5080831.493632822,3597500.8360915543,-158.49087859006926,-5261.088342051161,7359.93171403335,0.9951222121239021,-4.694577148376645e-05,0.00044318379591736575,0.09864879280482518
1.6300000000000001,-1.3844799787848196e-05,0.0005096994926587755,-0.006871734291058388,-46.760111195586205,49.37340291163693,4.550731506880246,-1653978.4105939986,5080805.188190198,3597537.636189092,-158.1986722579415,-5261.088707763025,7360.107301002245,0.9951239055950118,-4.7052853656125046e-05,0.0004444122380043605,0.09863170279946298
1.635,-9.939775965761999e-06,0.0005062255525045718,-0.006883037202852369,-46.745308835936015,49.328364462118444,4.548073901361512,-1653979.2008570672,5080778.8827456245,3597574.4371642824,-157.90655515504733,-5261.089121542157,7360.282775156374,0.9951255993065735,-4.7220612906463e-05,0.0004456760511356778,0.09861460717258923
1.6400000000000001,3.7729721117329794e-06,0.0004948729405717981,-0.006865568621039889,-46.72261089895284,49.297434698765905,4.534969247177115,-1653979.9896599208,5080752.577299124,3597611.239016418,-157.61458628188245,-5261.089478952417,7360.458079063156,0.9951272955132672,-4.737781331031665e-05,0.000446932183014233,0.09859748339292142
1.645,8.891651130072694e-06,0.0005383873345989533,-0.006874293039514006,-46.702658099609366,49.26651432163543,4.545980912784988,-1653980.777003293,5080726.271850752,3597648.0417447337,-157.32276255972513,-5261.0898697823695,7360.63324725952,0.9951289871329035,-4.749808100973747e-05,0.00044816345370024877,0.09858040302865763
1.6500000000000001,8.363703864767673e-07,0.0004970742149212018,-0.006859383927562417,-46.68061301851245,49.223620670116034,4.531030814044457,-1653981.5628879557,5080699.9664005935,3597684.8453487144,-157.03110261038825,-5261.090193393428,7360.8083449764235,0.9951306805593344,-4.761634827156792e-05,0.00044950424080806634,0.09856330091944399
1.655,-1.6578777844328935e-05,0.0005270503748675219,-0.006866413716552413,-46.66282989405597,49.19153736544934,4.536068391188978,-1653982.347314722,5080673.660948789,3597721.6498277085,-156.7396038041995,-5261.090528723268,7360.983252669627,0.9951323700625597,-4.774445901391744e-05,0.00045074026478755336,0.09854623588627434
1.6600000000000001,1.0336780299469358e-05,0.0004930869144480102,-0.0068450396347835745,-46.65552831829728,49.159460042300545,4.525882736682774,-1653983.1302843648,5080647.355495433,3597758.455181007,-156.4482533975052,-5261.090813247905,7361.158066666575,0.9951340609672543,-4.792328870230748e-05,0.00045204657291899675,0.09852915335105364
1.665,1.277529310507649e-05,0.0004991548400023208,-0.0068554359367383666,-46.629283064374256,49.12648159650339,4.521799624553011,-1653983.9117974602,5080621.0500406865,3597795.2614080133,-156.156984734147,-5261.091085575748,7361.33273593349,0.9951357463546822,-4.802676677214471e-05,0.0004532750179048678,0.09851212393557214
1.67,9.219600595146213e-06,0.0005109072725380023,-0.006845852974673588,-46.604609059071,49.09471866278435,4.518979620090711,-1653984.6918546527,5080594.744584577,3597832.068508076,-155.86589233480143,-5261.091358203848,7361.507289187088,0.99513743400254,-4.8125684391296494e-05,0.00045451915809059136,0.09849506862322566
1.675,-9.675302382677696e-06,0.0005074177257669194,-0.006853407849704157,-46.58539187748613,49.05274194683595,4.528119592982444,-1653985.470456805,5080568.439127117,3597868.876480633,-155.57496860447642,-5261.091625745789,7361.6817336356335,0.9951391189834474,-4.823633100559956e-05,0.00045579166196367706,0.09847803712536846
1.68,3.4080201332938996e-06,0.0004834311634303506,-0.006863862922370727,-46.566345461726435,49.02109752056609,4.522389332094899,-1653986.2476047832,5080542.133668536,3597905.6853251094,-155.28422256066318,-5261.091806378236,7361.856056777462,0.995140805532604,-4.839313474771362e-05,0.00045705083149770356,0.09846098682504643
1.685,-1.470616052569797e-05,0.0005076978796273176,-0.006837926878188742,-46.544380090141765,48.98811199150465,4.521782656099863,-1653987.0232993793,5080515.828209065,3597942.495040898,-154.99361593163775,-5261.091982183427,7362.030258871839,0.9951424943901883,-4.8511496699990515e-05,0.00045825354510645806,0.09844391047290427
1.69,1.0023505984588349e-05,0.0005061448455081776,-0.006825025556554901,-46.53721301266084,48.949620076455126,4.504940988251331,-1653987.7975413462,5080489.52274877,3597979.3056274233,-154.7031707960382,-5261.0921358465375,7362.204351156031,0.9951441765412135,-4.868086667813111e-05,0.00045951217574984835,0.0984268986346913
1.695,-1.57588279003799e-05,0.0004959213811262379,-0.006833891339919135,-46.50635789139762,48.92095907480303,4.511125609911533,-1653988.570331297,5080463.21728771,3598016.117083936,-154.41280957940174,-5261.092288426757,7362.378253831229,0.9951458552305749,-4.8788315711340244e-05,0.0004607730292573854,0.09840991883607866
1.7,-9.078349578799419e-07,0.00048632084836122696,-0.006829334820213817,-46.48634322141848,48.88753742913603,4.502630156872632,-1653989.341669948,5080436.911825938,3598052.9294097964,-154.12265079959064,-5261.092420122928,7362.552090422716,0.9951475358181138,-4.895740267404633e-05,0.00046200210385953646,0.09839291698270161
1.705,-1.3308431244588388e-05,0.000523580049799537,-0.0068168693564383594,-46.47725677254099,48.844376464424656,4.4948831408303045,-1653990.1115581633,5080410.606363499,3598089.742604502,-153.83263534204357,-5261.092555732963,7362.725791728127,0.9951492150059568,-4.9087175475960246e-05,0.00046321094709889733,0.09837592642052104
1.71,-3.505433879498915e-06,0.0005041189738229338,-0.006819545291200876,-46.459048407494656,48.80829905048395,4.491738149261734,-1653990.8799965826,5080384.30090049,3598126.55666726,-153.54273237993726,-5261.092647550035,7362.89931139913,0.9951508907922325,-4.9256948458457976e-05,0.0004645094380947596,0.0983589668518383
1.715,-7.135340131547135e-06,0.0004983547090590379,-0.006794171582846301,-46.42882984705631,48.777047117800784,4.48919980428589,-1653991.6469858543,5080357.99543709,3598163.3715972845,-153.2529762055413,-5261.092712332993,7363.072698477285,0.9951525669695364,-4.939755045184106e-05,0.00046576192238937037,0.09834200058803035
1.72,-3.163606203102888e-06,0.0004947063492341818,-0.006817018171163499,-46.40552182441983,48.73982414429956,4.492525927631881,-1653992.412526827,5080331.689973352,3598200.1873939903,-152.96341296905132,-5261.092783310903,7363.245983976014,0.9951542366251074,-4.954573648856331e-05,0.0004669991764440729,0.09832509742730569
1.725,-1.8043727894713318e-05,0.00047222971297327765,-0.006779818289945369,-46.38597097711912,48.711411694914084,4.495111223249326,-1653993.1766204338,5080305.38450937,3598237.0040568365,-152.67402974694426,-5261.0928094914725,7363.419154391048,0.9951559116118048,-4.9683171151260406e-05,0.0004682283271339651,0.09830813739408364
1.73,-2.7119021319403066e-06,0.0004944531955198844,-0.006777315191099471,-46.36567353103804,48.66807581742513,4.486664477402195,-1653993.9392674908,5080279.079045329,3598273.8215853237,-152.38479305012302,-5261.092806458552,7363.592240445211,0.9951575771914128,-4.98520582664862e-05,0.0004693979058222009,0.09829126990173409
1.735,9.031400956053338e-06,0.00047796477153776683,-0.006799303473892402,-46.343757887164166,48.63470963128121,4.4756133629159995,-1653994.7004687698,5080252.773581351,3598310.6399788023,-152.0957185373637,-5261.092784788478,7363.765151149624,0.9951592418445254,-4.998825940932243e-05,0.00047062654181608476,0.09827440858769637
1.74,9.779786559748737e-06,0.0005061672807225388,-0.006772215864681126,-46.319500535189064,48.60369944137888,4.47733415666896,-1653995.4602250473,5080226.468117437,3598347.459236483,-151.80679241381324,-5261.09278098264,7363.937921068564,0.9951609116326342,-5.009121929154902e-05,0.00047181703857248556,0.09825749252884632
1.745,-9.185627635526795e-06,0.0004853144575250494,-0.006793409501493673,-46.316774780093795,48.56653215919347,4.475392709793332,-1653996.2185371218,5080200.162653597,3598384.2793577793,-151.5180374333615,-5261.09275493936,7364.110597404073,0.9951625744457623,-5.019921306764446e-05,0.00047307788750761923,0.0982406438284798
1.75,6.5123676951197695e-06,0.00048105926759040414,-0.0068084327710536225,-46.29666703517322,48.53019345801073,4.470823256942198,-1653996.975405623,5080173.857190053,3598421.1003420916,-151.22936306939044,-5261.092662930147,7364.283127469329,0.9951642421986834,-5.034929458393039e-05,0.0004742821958369416,0.09822374239697586
1.7550000000000001,-1.5990402560441454e-05,0.0004952573129194828,-0.006763689509036115,-46.263672991334076,48.50529762848712,4.464000041883329,-1653997.7308311372,5080147.551727014,3598457.922188713,-150.94084256478132,-5261.09255271409,7364.455521318345,0.9951659133585972,-5.0459293787996446e-05,0.00047547977039489627,0.09820680354230493
1.76,1.833984895658674e-05,0.0004998987115059242,-0.006784894981258572,-46.25949981127545,48.46267328059806,4.458773465905612,-1653998.48481452,5080121.246264417,3598494.744897091,-150.65251060030016,-5261.092485825519,7364.627829587475,0.9951675732256514,-5.062871062757941e-05,0.00047670714917359783,0.09818997600160274
1.7650000000000001,1.7151652861186847e-05,0.0004972031654470207,-0.006765951074504762,-46.22598917153236,48.42189926146321,4.4654950405728915,-1653999.2373564746,5080094.9408023115,3598531.568466568,-150.36427118289748,-5261.092356290589,7364.799961335284,0.9951692380099562,-5.071388118887933e-05,0.000477954499770667,0.09817309563358867
1.77,-1.6968967956925477e-05,0.0004912950791996364,-0.006799215439759199,-46.20083036288561,48.379310893717395,4.4495633725637305,-1653999.9884578232,5080068.635340968,3598568.3928964245,-150.07626822737888,-5261.092181082735,7364.971981226978,0.9951708978607989,-5.08013236649899e-05,0.0004791948546981427,0.09815626236999914
1.7750000000000001,1.2109016283681487e-05,0.0004896394692540012,-0.006761452542470294,-46.19588263574229,48.34977608864802,4.441310306025886,-1654000.7381195894,5080042.329880445,3598605.2181859068,-149.78843828918477,-5261.092028227043,7365.143811753628,0.9951725655894945,-5.09722458096709e-05,0.0004804121334921608,0.09813934636034317
1.78,-1.797744770402759e-05,0.0005054951899354784,-0.006748722201018413,-46.169881266555926,48.31081519213199,4.441177609053162,-1654001.4863423782,5080016.024420734,3598642.044334214,-149.50067722731737,-5261.09185643338,7365.315511151412,0.9951742237713753,-5.107037235360587e-05,0.0004816324321514913,0.09812252423912675
1.7850000000000001,-1.2878031167217581e-05,0.000496001664687763,-0.006757900484666217,-46.139900777549805,48.267240065486014,4.449596920857561,-1654002.2331268382,5079989.718961955,3598678.871340694,-149.21310680525838,-5261.091654812439,7365.487080767565,0.9951758785221294,-5.1247226246482045e-05,0.0004828847999098978,0.09810573379624557
1.79,5.904754891265819e-06,0.00047481145468697303,-0.006750944572219579,-46.12360240158151,48.24664636788905,4.435648055063267,-1654002.9784740154,5079963.413504351,3598715.699204718,-148.9257640692242,-5261.091387130569,7365.65852894019,0.9951775352508718,-5.1409075740827884e-05,0.0004841147977406804,0.09808892048528989
1.795,-7.350911169240666e-07,0.0005018855483026052,-0.006745723845179648,-46.10098417512855,48.19435243143652,4.435513079625981,-1654003.7223847206,5079937.108047966,3598752.5279257293,-148.63851796940835,-5261.091166641786,7365.82987549975,0.9951791900166987,-5.151898997289236e-05,0.00048529668223232496,0.09807212443213095
1.8,-4.517325630892314e-06,0.00047150795151636686,-0.006739767142637968,-46.07441450134514,48.17339381936496,4.439834305302747,-1654004.4648596928,5079910.802592853,3598789.3575030062,-148.3514709382329,-5261.090878670467,7366.001035284974,0.9951808431840661,-5.1652055482337664e-05,0.00048654429823440906,0.09805534134437793
1.805,-3.888546642632728e-06,0.000498498328907335,-0.006730007513453892,-46.05615602393743,48.13480711609795,4.424983038219287,-1654005.2058998472,5079884.497139191,3598826.1879359726,-148.06459081818585,-5261.09058595326,7366.172151335793,0.9951824946434193,-5.178707703580677e-05,0.0004877154096900119,0.09803857305713061
1.81,5.498160273647477e-06,0.0004845711516927115,-0.00673956084929359,-46.036815912096145,48.089876798616565,4.418835707170413,-1654005.9455059415,5079858.19168696,3598863.0192240803,-147.77784689073295,-5261.090306453703,7366.343091626293,0.9951841433943042,-5.192713754532428e-05,0.0004889538272594326,0.09802182901921513
1.815,-8.817466757431038e-06,0.00047383531077406065,-0.006734145073638193,-46.01661583730436,48.05555317606385,4.4179987353849075,-1654006.6836787248,5079831.88623621,3598899.851366448,-147.4912664599964,-5261.089993406188,7366.513855580894,0.9951857942208991,-5.2040443044729264e-05,0.000490159893439948,0.09800506117537702
1.82,-1.2998042111326224e-05,0.00048717599439426757,-0.0066932056045752525,-46.00037681945133,48.016915555670835,4.404369420653219,-1654007.4204189945,5079805.580787097,3598936.6843623416,-147.20484138242622,-5261.089652108703,7366.684501865296,0.995187443448133,-5.2186728247583146e-05,0.0004913357422846364,0.0979883067967949
