t_s,gyro_x_radps,gyro_y_radps,gyro_z_radps,accel_x_mps2,accel_y_mps2,accel_z_mps2,ins_pos_ecef_x_m,ins_pos_ecef_y_m,ins_pos_ecef_z_m,ins_vel_ecef_x_mps,ins_vel_ecef_y_mps,ins_vel_ecef_z_mps,ins_quat_w,ins_quat_x,ins_quat_y,ins_quat_z
0.0,4.699866116074633e-06,0.0005957880350824586,-0.007477185293499623,-48.931901331241775,55.5408536646858,5.132340071522142,-1656201.7170614246,5097264.758841336,3591181.9960583495,-258.4057955714953,-5260.056020287632,7298.290012616031,0.9945218953682734,0.0,0.0,0.10452846326765353
0.005,-6.31145885141704e-06,0.0005887178485547755,-0.007460632132598668,-48.9319443164448,55.54781151516493,5.147413812716686,-1656203.0083051852,5097238.4585477775,3591218.48800185,-258.0917086308201,-5260.061403027857,7298.487387582813,0.9945238491401345,-1.440067199492198e-07,1.4825387890895794e-06,0.10450987268805084
0.01,1.0851959214096395e-05,0.0005639463164703589,-0.007494097448106633,-48.937570238387345,55.5428251823985,5.148824919978273,-1656204.2979785423,5097212.158227395,3591254.9809324252,-257.77763423627357,-5260.066750025138,7298.684842500459,0.9945257982381704,-3.135436809862791e-07,2.9446219303947596e-06,0.10449132322810781
0.015,-7.755600668120674e-06,0.0005765571874149115,-0.007500344490304395,-48.94951969400697,55.54945074830587,5.141271686440143,-1656205.5860815074,5097185.857880329,3591291.474850246,-257.46355180224845,-5260.072076388066,7298.882285896646,0.9945277557288915,-4.339362077258493e-07,4.34959879579794e-06,0.10447269052602774
0.02,-8.018511439716886e-06,0.000581103657423835,-0.007483706550713727,-48.95461030831411,55.54025174188665,5.139287366942419,-1656206.8726138878,5097159.55750656,3591327.969755297,-257.1494003001555,-5260.077430920994,7299.07973437978,0.9945297144996667,-6.038868682102435e-07,5.7810703512181696e-06,0.1044540422550803
0.025,6.206733007310574e-06,0.0005657626410798812,-0.007493145474568979,-48.94976072159984,55.52881628594274,5.143342368184173,-1656208.1575755049,5097133.257106059,3591364.465647496,-256.83524654865107,-5260.0827697640025,7299.277145270784,0.994531668574646,-7.756782123769766e-07,7.223777273284791e-06,0.10443543531458009
0.03,-6.671731031145052e-06,0.0005538331938863499,-0.007475704526065845,-48.95183939514201,55.52449669383521,5.134566018536786,-1656209.440966488,5097106.956678923,3591400.9625266967,-256.5211468218627,-5260.088084500309,7299.474534929322,0.9945336247637189,-9.080957221967278e-07,8.632055407037697e-06,0.10441680486876402
0.035,8.222776298621331e-06,0.0005615430513851095,-0.007484308044417817,-48.95759611045179,55.51816262395932,5.140235364727297,-1656210.722786957,5097080.656225143,3591437.4603927596,-256.207040660736,-5260.093427648113,7299.671890376043,0.9945355760500607,-1.0694189322220081e-06,1.0007311166285649e-05,0.10439821775051594
0.04,-1.63171875136787e-05,0.0005693675586028012,-0.007486278746577578,-48.96817404279347,55.52290497426022,5.138809698152794,-1656212.003036893,5097054.355744748,3591473.9592455872,-255.89293378782605,-5260.098730080274,7299.869240628247,0.9945375292320159,-1.195721802004786e-06,1.1405623617982054e-05,0.10437960920390181
0.045,-1.933285699233999e-05,0.0005742101414499005,-0.007486487704660799,-48.97274262273316,55.51737732367869,5.143869252614952,-1656213.2817161656,5097028.055237835,3591510.4590852056,-255.57877526921092,-5260.104035062162,7300.066606640072,0.9945394825776666,-1.3850813125108842e-06,1.2816986795377749e-05,0.10436099572136
0.05,-9.64345628195328e-07,0.0005761396545657454,-0.0074732563219988895,-48.976017099546574,55.51057262397115,5.144196907098181,-1656214.5588246516,5097001.754704483,3591546.9599116473,-255.26461910180603,-5260.109306033057,7300.263970065614,0.9945414356272607,-1.583202277051133e-06,1.423960352145723e-05,0.10434238168258564
0.055,1.3625817291453784e-05,0.0005740158327508647,-0.007498589878750177,-48.98226402423077,55.5018961607084,5.135165333588912,-1656215.8343623676,5096975.454144814,3591583.4617248564,-254.95046735035183,-5260.114561404389,7300.461313611937,0.9945433848755469,-1.7361554808422424e-06,1.5671809282317497e-05,0.10432380050434341
0.06,-2.4313524675022767e-06,0.0005742054835982645,-0.007464659937111412,-48.998390523505236,55.499198301002366,5.137500360888886,-1656217.1083292814,5096949.153558842,3591619.964524643,-254.63629815534972,-5260.119827631983,7300.658600961995,0.9945453403808217,-1.852279388631218e-06,1.710253959847118e-05,0.1043051563004809
0.065,-1.6812490295260918e-05,0.0005789075757847827,-0.0074700178838494205,-48.99067541646356,55.49400227879639,5.141399657658021,-1656218.3807252042,5096922.85294664,3591656.4683108446,-254.32207096187975,-5260.125053170168,7300.855879684953,0.9945472866883596,-2.0083752573572883e-06,1.8529554492639638e-05,0.10428659642276204
0.07,-1.2895118621136615e-05,0.0005672411346841756,-0.007487902221539379,-48.99467715417572,55.498063294504696,5.140467314070832,-1656219.651550129,5096896.552308318,3591692.9730834546,-254.00789894726313,-5260.130275326928,7301.0531644746325,0.9945492340438383,-2.2014540905729235e-06,1.9964511086181535e-05,0.10426802318729586
0.075,-1.3729041701809869e-05,0.000568351651678456,-0.007475682820832869,-48.99604601122164,55.49688387136354,5.137394682322312,-1656220.920804143,5096870.251643855,3591729.4788425392,-253.69370656279844,-5260.135510106472,7301.250469285026,0.9945511857121015,-2.3817526762715766e-06,2.137148159062572e-05,0.10424940544789693
0.08,2.1646086647385233e-05,0.0005703988586193525,-0.007474035569865876,-49.00809627776232,55.48869189547599,5.132363520670382,-1656222.1884871903,5096843.950953181,3591765.985588135,-253.37951245137475,-5260.140759452597,7301.447769161912,0.9945531338456807,-2.564413483076726e-06,2.2780995985329156e-05,0.1042308180539019
0.085,-2.8468246211624005e-05,0.0005641950037655617,-0.007492323837159602,-49.01586655914438,55.48056415509,5.141716268854179,-1656223.4545991693,5096817.6502363,3591802.4933201107,-253.06527915944565,-5260.145993040916,7301.645020999434,0.9945550812008097,-2.6596515384031524e-06,2.4204818469204362e-05,0.10421223471696583
0.09,5.289913613165927e-06,0.0005563336832183878,-0.007463984218093842,-49.01470533899442,55.47535292841561,5.128960829263475,-1656224.7191399776,5096791.3494934095,3591839.002038336,-252.7510441508496,-5260.151163098853,7301.842268978804,0.9945570329705471,-2.877878066472486e-06,2.5600159317992534e-05,0.10419360587469759
0.095,5.8797824367124956e-08,0.0005612624749778258,-0.007488748095389815,-49.008969943675325,55.467978683966365,5.127680755992433,-1656225.9821096223,5096765.048724547,3591875.511742685,-252.43681370019414,-5260.15638194281,7302.0394707703235,0.9945589770094426,-3.0101189932631032e-06,2.6984747493582525e-05,0.10417504745712163
0.1,-2.207158349722792e-06,0.0005562059360843393,-0.007478560951762005,-49.01539854641766,55.45876267404181,5.135823910952101,-1656227.243508224,5096738.74792957,3591912.022432996,-252.12262691553244,-5260.161608770884,7302.236653597202,0.99456092714802,-3.156651865321264e-06,2.8380228029222325e-05,0.10415642743042333
0.105,1.2120002139010898e-05,0.0005725328978708442,-0.0074715353445945565,-49.02045789900353,55.46461584208722,5.134666714992762,-1656228.5033359032,5096712.447108605,3591948.5341091948,-251.80844484944078,-5260.16677717009,7302.433825921521,0.9945628742842284,-3.3075014146010943e-06,2.976254601049237e-05,0.10413783269660196
0.11,-1.0631655269827789e-05,0.0005623428451586594,-0.00747713827608273,-49.0287454320777,55.45733680114137,5.134686805780668,-1656229.7615926007,5096686.14626176,3591985.0467713196,-251.49423411576512,-5260.171961002411,7302.631024008127,0.9945648192409524,-3.4269779212223934e-06,3.11891895131112e-05,0.1041192553935245
0.115,6.167192243160151e-06,0.0005705633148300195,-0.007466009556444764,-49.0306338617124,55.44788168760504,5.136957504979214,-1656231.0182782004,5096659.84538906,3592021.5604193676,-251.18000582511647,-5260.177118969999,7302.828195136932,0.9945667653074433,-3.600372406856292e-06,3.258457407287093e-05,0.10410066412454798
0.12,-1.5506101356683074e-05,0.0005863743698904412,-0.007481459560101186,-49.03224693634572,55.4560356196228,5.133185164128008,-1656232.2733927036,5096633.544490636,3592058.075053211,-250.86579545561634,-5260.182250475723,7303.0253422537535,0.9945687081281457,-3.7341364369663735e-06,3.400477016414671e-05,0.10408210048823598
0.125,2.0963653402523255e-05,0.0005718520906644224,-0.007477631759033402,-49.034862973844284,55.44916621094793,5.130505277605104,-1656233.5269361031,5096607.24356646,3592094.590672867,-250.55156427423796,-5260.187420046758,7303.2225201127785,0.9945706546181837,-3.92590484776098e-06,3.5458639545957945e-05,0.10406349840184001
0.13,1.6976705254665409e-06,0.0005815754294309253,-0.0075005483825826644,-49.041457290437634,55.43022344541179,5.1386310590777775,-1656234.7789083554,5096580.942616442,3592131.1072783424,-250.23733669420807,-5260.192587058688,7303.419669998793,0.9945725997641948,-4.023215450275788e-06,3.6885888296638554e-05,0.10404490579329624
0.135,4.285250531673613e-06,0.0005620967705991476,-0.007460573418789649,-49.04246329385577,55.424546216124014,5.126304595251976,-1656236.0293095242,5096554.641640792,3592167.6248694416,-249.92313085469127,-5260.197673127168,7303.616769759471,0.9945745505193025,-4.170960870978129e-06,3.8332301901168864e-05,0.1040262561691282
0.14,7.03560815240135e-06,0.0005671971222290717,-0.007483600933290546,-49.04550018161856,55.416448107604815,5.130335398443923,-1656237.2781396548,5096528.340639607,3592204.143445918,-249.60892129150287,-5260.202800709505,7303.813820822652,0.9945764905303087,-4.3072028764454875e-06,3.9730956403823895e-05,0.10400770590352407
0.145,-2.3865791962161143e-05,0.0005827590904988137,-0.007459906826639186,-49.04902773740894,55.41071620355622,5.141239129634287,-1656238.5253987685,5096502.039612866,3592240.6630076133,-249.29472426502187,-5260.207895579557,7304.010857303043,0.9945784361793943,-4.437934754770133e-06,4.1143007515101445e-05,0.1039890983445295
0.15,1.942261861638044e-06,0.0005635759724433833,-0.007471916770004356,-49.053978750173655,55.407098081718786,5.130873765403111,-1656239.7710869345,5096475.73856079,3592277.1835545255,-248.98054207778162,-5260.2129350486875,7304.207907627253,0.9945803753176284,-4.649544547539537e-06,4.2585719348144656e-05,0.1039705496661606
0.155,-2.0361336457847586e-05,0.0005490942606326394,-0.0074860702944720475,-49.046842661653066,55.41339282757685,5.13440583069454,-1656241.0152041328,5096449.43748344,3592313.705086594,-248.6663372174841,-5260.218004845463,7304.404919640319,0.9945823172313754,-4.791998959347378e-06,4.398744133863111e-05,0.10395197108669765
0.16,3.189733788563325e-05,0.0005784016648255142,-0.007482028245879188,-49.058468188773766,55.396737973798594,5.126147621871116,-1656242.2577503843,5096423.136380684,3592350.22760385,-248.35216344903702,-5260.22309773098,7304.601982779469,0.9945842624750367,-4.986148330941984e-06,4.534735875035275e-05,0.10393335728120555
0.165,1.3948735237167597e-05,0.0005829360114730055,-0.007473499489310953,-49.066044350985486,55.38666444091808,5.131952415132773,-1656243.4987257023,5096396.835252516,3592386.751106194,-248.0379636909373,-5260.228169179268,7304.798954919978,0.9945862063156136,-5.057973147123588e-06,4.6793726452629684e-05,0.10391475348322757
0.17,5.030196606283622e-06,0.0005648010266592439,-0.007465688665896445,-49.069279595105186,55.39366994739292,5.13333438646969,-1656244.7381300167,5096370.534099126,3592423.2755933455,-247.7237620702378,-5260.233187029357,7304.99590559597,0.9945881475900851,-5.1756035091384255e-06,4.824670593132365e-05,0.1038961708572154
0.17500000000000002,5.94239797460472e-07,0.0005950925732545237,-0.00745895200914135,-49.07299863091151,55.37159342327463,5.126469290129439,-1656245.9759632745,5096344.232920617,3592459.801065348,-247.40954110251283,-5260.238216653604,7305.192895408209,0.9945900864889631,-5.3106982205777245e-06,4.9652276886750844e-05,0.10387760761745021
0.18,7.2420179048208385e-06,0.0005694202144867198,-0.007477038440112336,-49.074954818173964,55.3716858692164,5.125465311564214,-1656247.2122254802,5096317.931717017,3592496.3275220436,-247.09534120086096,-5260.243223206057,7305.389782907155,0.9945920232863041,-5.464688524077869e-06,5.1132015102633436e-05,0.10385906109199157
0.185,-2.955537281843667e-06,0.0005651361208880624,-0.007465766106011956,-49.07887237170672,55.36175741757803,5.131377382474296,-1656248.4469166764,5096291.630488364,3592532.854963191,-246.7811372411261,-5260.248237784373,7305.586675911647,0.9945939644343246,-5.595485802290529e-06,5.2549645325358954e-05,0.10384046955806164
0.19,-4.921500225835628e-06,0.0005712392656450466,-0.007479180063572304,-49.07330189751272,55.35639899445822,5.130974591223074,-1656249.6800368887,5096265.329234755,3592569.383388759,-246.4669476306094,-5260.253206244223,7305.783551446788,0.9945959023074528,-5.750525508918495e-06,5.3953976055957815e-05,0.10382190601758265
0.195,4.261093624543609e-06,0.0005624547386071324,-0.00748952296347072,-49.08777643224377,55.347504483711326,5.123534358566802,-1656250.9115862537,5096239.02795628,3592605.912798684,-246.1527983590677,-5260.258183471681,7305.980418487255,0.9945978433122782,-5.912039469926003e-06,5.537297170663316e-05,0.10380330908717098
0.2,-6.525063724918378e-06,0.0005849857208313431,-0.007446296365953897,-49.08401618897655,55.34210087105313,5.124613500834361,-1656252.1415647424,5096212.726652952,3592642.443192795,-245.8385971951374,-5260.263147828262,7306.177225880528,0.99459978665232,-6.0484427331097e-06,5.6772507464896294e-05,0.10378468640150343
0.20500000000000002,-1.3842086481116343e-05,0.0005794029818638773,-0.0074820787763410015,-49.08270265620227,55.3427415666919,5.129816989779863,-1656253.3699723112,5096186.425324804,3592678.9745709277,-245.5244302694598,-5260.268111294967,7306.374027221347,0.9946017184246254,-6.217505560770273e-06,5.822526853727402e-05,0.10376617116354862
0.21,-4.610734955462077e-06,0.0005687860669304557,-0.007461904127261571,-49.08702937435782,55.32375575644726,5.127660633817893,-1656254.596809089,5096160.12397186,3592715.506933137,-245.2102808474262,-5260.273066310599,7306.5708564179085,0.994603659131696,-6.403319154754269e-06,5.966224938004421e-05,0.10374756691727563
0.215,1.539477374484038e-05,0.0005689921295731482,-0.0074939705747303085,-49.09014477218108,55.325401014087554,5.117704925038957,-1656255.8220751663,5096133.82259423,3592752.040279299,-244.89615013767738,-5260.277985509533,7306.767608498862,0.9946055942587122,-6.563422199580333e-06,6.107522579438346e-05,0.10372901279782946
0.22,-2.288886788389778e-06,0.0005735408371846364,-0.007458848174219969,-49.08080364015961,55.30396420458423,5.1262848400662495,-1656257.0457705313,5096107.521191894,3592788.574609186,-244.58199585738285,-5260.282949210282,7306.964346345291,0.9946075373519515,-6.673839597780297e-06,6.249390191790112e-05,0.1037103789051922
0.225,-2.345256498557204e-06,0.0005713717773184104,-0.007470027425154105,-49.097665327115756,55.305670399529944,5.114826724244689,-1656258.2678953703,5096081.219764877,3592825.1099226493,-244.26793968940987,-5260.287857330008,7307.161038864704,0.9946094709882896,-6.829401631902959e-06,6.391930410481538e-05,0.10369183231130906
0.23,2.890930235893896e-06,0.0005573431029901695,-0.007475745371046636,-49.092518604832215,55.29119096814073,5.121759919376254,-1656259.4884497104,5096054.918313265,3592861.6462195,-243.95379640288957,-5260.2927876722815,7307.357701447679,0.9946114071745693,-6.984543330197436e-06,6.533929804705919e-05,0.1036732578836781
0.23500000000000001,-8.57216188186434e-07,0.0005707698941760944,-0.007485871337733062,-49.09675228162509,55.288799335467715,5.122951468399198,-1656260.7074334954,5096028.616837105,3592898.1834996003,-243.63971761103153,-5260.297676152682,7307.554338690901,0.9946133444961023,-7.123030036490793e-06,6.672576629908451e-05,0.10365466920121028
0.24,-2.546580641108227e-06,0.0005959380488762239,-0.007447616181235059,-49.10029740799549,55.27715160621493,5.1176346146619975,-1656261.9248468692,5096002.315336531,3592934.721762886,-243.32563190598924,-5260.302553686318,7307.750975553573,0.9946152840894784,-7.274317694559239e-06,6.814464922934154e-05,0.10363605530411364
0.245,-1.087949284322853e-05,0.0005647806520212704,-0.007475733954968959,-49.104027382738195,55.270981009314696,5.132159516645349,-1656263.1406898263,5095976.013811581,3592971.2610092172,-243.0115509389873,-5260.307426216001,7307.94755690214,0.9946172134183082,-7.436320322810841e-06,6.962567671207885e-05,0.10361753649342254
0.25,1.9083942497032693e-05,0.0005579930367267024,-0.007468223269958189,-49.095396939010946,55.26928433801206,5.120582391276255,-1656264.354962427,5095949.712262446,3593007.80123851,-242.69748928807027,-5260.312227585907,7308.144160243863,0.9946191496879402,-7.610976855777364e-06,7.10270708500333e-05,0.10359894773243156
0.255,-1.3957514246297692e-05,0.0005771608118179376,-0.0074766522823582916,-49.10660602928636,55.25441816445,5.115693211220406,-1656265.5676648018,5095923.410689136,3593044.342450764,-242.3834606509518,-5260.317096445363,7308.34074130392,0.9946210836650763,-7.709368561448795e-06,7.241934782652538e-05,0.10358037760557295
0.26,-4.3995486744034103e-07,0.0005699909071082009,-0.007470920975530385,-49.113222510358106,55.24511823364427,5.118872563025343,-1656266.7787969755,5095897.109091557,3593080.884645738,-242.06940885799415,-5260.321935439324,7308.537248429651,0.9946230194716948,-7.894884627716545e-06,7.385073018180375e-05,0.10356178648878682
0.265,1.4798641286677572e-05,0.0005829072458017372,-0.007478660329461441,-49.106839767786184,55.243498912558145,5.115942967225444,-1656267.9883588844,5095870.80746988,3593117.427823186,-241.75535463874408,-5260.326734965216,7308.733730683762,0.994624953446765,-8.044931123348448e-06,7.526778400008662e-05,0.10354320958450336
0.27,7.955407602099689e-06,0.0005791613314348599,-0.007462536982194081,-49.11011455465386,55.22460424704848,5.113759070752967,-1656269.1963506066,5095844.505824135,3593153.971983046,-241.4413343153161,-5260.331563411823,7308.93021323131,0.9946268890737123,-8.160430850403951e-06,7.672089955109538e-05,0.10352461339633354
0.275,1.9376840912187352e-05,0.0005672928855493485,-0.007465060043248123,-49.11208802994414,55.2205861272241,5.118902505249443,-1656270.4027722855,5095818.20415433,3593190.5171251283,-241.1273371656812,-5260.336358465746,7309.126619869232,0.9946288201792928,-8.291974156877536e-06,7.81629298284202e-05,0.10350605726501037
0.28,6.538147318261391e-06,0.0005831633867337621,-0.007445373732538639,-49.114366215201066,55.21682165116137,5.114677935953708,-1656271.6076240065,5095791.902460614,3593227.0632492593,-240.81335123738742,-5260.341127892426,7309.3230325127815,0.9946307515919587,-8.392046596530808e-06,7.95784037490735e-05,0.10348749482167718
0.28500000000000003,8.138604297517852e-06,0.0005681697012179006,-0.007453742072406997,-49.10445700859167,55.20753738553693,5.1195511054134695,-1656272.8109057914,5095765.600743023,3593263.610355405,-240.49936269794213,-5260.345908572292,7309.519425739513,0.9946326775604097,-8.52814551141258e-06,8.10300196656475e-05,0.10346898129592687
0.29,6.828125925862956e-06,0.0005496842169140427,-0.007463871920217895,-49.108482325159066,55.191270681849836,5.121063986964049,-1656274.0126178176,5095739.299001559,3593300.1584435017,-240.18544780580007,-5260.350677117451,7309.715812968256,0.9946346053495424,-8.656387998094748e-06,8.244476634573958e-05,0.10345044692550871
0.295,-2.089816859417972e-05,0.0005687373983460935,-0.00744551502474448,-49.10678333589964,55.185937624969185,5.112297185380227,-1656275.2127603185,5095712.997236361,3593336.7075133957,-239.87155262662776,-5260.355402139388,7309.912144595773,0.9946365354145115,-8.783110358445349e-06,8.381320809789008e-05,0.10343188733084481
0.3,2.7867046916395793e-05,0.0005437209385709369,-0.007457434847632855,-49.115780814431105,55.176111031238584,5.115043265637115,-1656276.4113333742,5095686.695447452,3593373.25756486,-239.55766965628797,-5260.360160955113,7310.108441109229,0.9946384603807469,-8.983699599436349e-06,8.52218582423342e-05,0.10341337335154217
0.305,-6.058065633829794e-06,0.0005471501669569625,-0.007471366874147116,-49.12252360047359,55.16087249887381,5.1165595629365885,-1656277.6083369832,5095660.39363486,3593409.808597731,-239.24377395404392,-5260.364875876819,7310.304707326788,0.9946403880879845,-9.056564388451668e-06,8.658090969533885e-05,0.10339482968653821
0.31,-5.785086130264773e-06,0.0005649271209684839,-0.007435122494939303,-49.112289584825604,55.151684758848184,5.113876304696096,-1656278.803771128,5095634.091798811,3593446.3606117987,-238.9298839183906,-5260.36954401307,7310.5009198087,0.9946423190467417,-9.214676818899511e-06,8.793971872213748e-05,0.10337625134921113
0.315,4.901717222762445e-06,0.0005470904266803788,-0.007473548594831025,-49.122452280463214,55.142330079170634,5.105205148688151,-1656279.9976359855,5095607.789939374,3593482.913606863,-238.61605911060357,-5260.374230757032,7310.697105819211,0.9946442402873193,-9.376696772582417e-06,8.934280337908575e-05,0.10335776310080644
0.32,-7.15816653030941e-06,0.0005738462281224149,-0.007450872308680351,-49.11776228360396,55.13473662015539,5.107711509455994,-1656281.1899316355,5095581.488056504,3593519.467582704,-238.3022008462678,-5260.37891726334,7310.893230528699,0.9946461711138616,-9.507542485166747e-06,9.070429560118453e-05,0.10333917926358992
0.325,1.7591156355319552e-05,0.0005881944825489757,-0.007454419955889425,-49.117870837570194,55.129763148672744,5.1084187033258,-1656282.3806581046,5095555.186150226,3593556.022539143,-237.9883867426499,-5260.383594130576,7311.089345028553,0.9946480957275576,-9.67528365173172e-06,9.212920407294933e-05,0.10332065177950703
0.33,-1.5179348718487949e-05,0.0005704851928046293,-0.007460771724822784,-49.118742122198185,55.12332919617214,5.105739275614471,-1656283.5698155419,5095528.884220579,3593592.5784761324,-237.67458822698183,-5260.388264516889,7311.285450811508,0.9946500209075313,-9.78518964232731e-06,9.359618387700943e-05,0.10330211543164082
0.335,5.8478297314369645e-06,0.0005516812668467683,-0.007472048360126076,-49.12475091785385,55.12263885398741,5.1049869775012375,-1656284.757404013,5095502.582267576,3593629.1353935893,-237.36080022413483,-5260.392936826179,7311.481531864564,0.9946519473833977,-9.97201155695226e-06,9.501066397317729e-05,0.10328356326128353
0.34,5.737625622978328e-07,0.0005824159241043123,-0.0074472650572502,-49.123330758382124,55.105299329668206,5.111178504103271,-1656285.9434234928,5095476.280291218,3593665.69329145,-237.04699172255602,-5260.397606066338,7311.677612476836,0.9946538764274665,-1.0101693995355084e-05,9.638381475579114e-05,0.10326498300939284
0.34500000000000003,1.7152250383889536e-05,0.0005642868390660443,-0.007451732383089841,-49.1152574568996,55.091530989849296,5.103528361863937,-1656287.1278740603,5095449.9782916475,3593702.252169608,-236.73323522642426,-5260.402222125883,7311.873650860188,0.9946557987179455,-1.0252419671550586e-05,9.783203042937008e-05,0.10324646434889506
0.35000000000000003,-4.210285297417582e-06,0.0005618255545619783,-0.007460668793250775,-49.12323996585713,55.083311049477174,5.101568701008479,-1656288.3107559888,5095423.676268939,3593738.8120278064,-236.41953625300272,-5260.406861374214,7312.069628445741,0.994657721819337,-1.0357242304294555e-05,9.923944463105718e-05,0.10322793454015568
0.355,3.427631058136635e-07,0.0005797026499296124,-0.007431053161829202,-49.12778314414033,55.06910931246069,5.109360898416077,-1656289.49206938,5095397.374223083,3593775.3728658026,-236.105820115877,-5260.411480999374,7312.265569995632,0.9946596468794199,-1.0514552994925032e-05,0.0001006352252014932,0.10320938247903345
0.36,7.502766556108974e-06,0.0005570675903979411,-0.007425217150145983,-49.12223731919688,55.061567305588085,5.100114198378307,-1656290.6718142442,5095371.072154291,3593811.9346834314,-235.792125603381,-5260.416036008763,7312.461481431917,0.9946615639469153,-1.0665147107089855e-05,0.00010207663537203868,0.10319090402400667
0.365,1.4601297086454544e-05,0.0005568709636792507,-0.007449072558197784,-49.1202773601888,55.05001675327697,5.10166092753266,-1656291.8499907178,5095344.770062627,3593848.4974805117,-235.47846388553802,-5260.420629502693,7312.657350688129,0.9946634791697938,-1.0792095945039564e-05,0.00010346360722157196,0.10317244004410289
0.37,5.840708777823636e-06,0.0005544312190130169,-0.007428798092259922,-49.116259359467705,55.03486931676678,5.101326662657981,-1656293.0265989776,5095318.467948047,3593885.06125686,-235.1648400350483,-5260.425202395035,7312.85318861213,0.9946654002001862,-1.0901348610825284e-05,0.00010485192037976085,0.10315391670624396
0.375,1.7091291514502122e-05,0.0005494105050689599,-0.00746488611618694,-49.11686465372579,55.027075575091644,5.098371570572244,-1656294.2016392464,5095292.165810646,3593921.626012274,-234.85126742339264,-5260.429758133692,7313.048977133658,0.9946673156565664,-1.1031751420421953e-05,0.0001062319080075277,0.1031354437506463
0.38,3.478694798322018e-06,0.0005535996780265472,-0.007434820828571078,-49.12302633130815,55.016968806940774,5.107104211742163,-1656295.3751116863,5095265.863650464,3593958.191746554,-234.53770857683753,-5260.434314325611,7313.244734794232,0.994669240072831,-1.1132892809196356e-05,0.00010760231058744102,0.10311688101731144
0.385,1.1843362945275688e-05,0.0005707971177324414,-0.007429778844666671,-49.12045965203637,55.00320565398595,5.101681853617923,-1656296.5470163524,5095239.561467659,3593994.7584595913,-234.22415784455356,-5260.4388082058085,7313.440480216853,0.9946711563900721,-1.1268956120553301e-05,0.00010897962184902465,0.10309839301409861
0.39,-1.1609872973364971e-05,0.0005523443047764576,-0.0074304525751086896,-49.12516113267455,54.99655891570816,5.092130965596095,-1656297.717353354,5095213.259262375,3594031.326151208,-233.9106427826422,-5260.443305158323,7313.636166361052,0.9946730710579419,-1.138865038996124e-05,0.00011040185366751885,0.1030799175101144
0.395,1.7225513398811072e-05,0.0005474988766649018,-0.0074576277306024775,-49.11239437156632,54.977357242745455,5.105595272521277,-1656298.8861227424,5095186.957034555,3594067.894821135,-233.5971126062319,-5260.447822729329,7313.831804390839,0.9946749855586918,-1.1561910310766892e-05,0.00011177215524413172,0.10306144030200472
0.4,-1.393371672384695e-05,0.0005625639140027962,-0.0074431792267121814,-49.123694837697116,54.973234024021,5.092936827356799,-1656300.0533247686,5095160.654784305,3594104.464469202,-233.2836978599948,-5260.45227749728,7314.027422530893,0.9946769067170319,-1.1662224785307809e-05,0.00011313783647211603,0.10304289547397032
0.405,-9.724754402313337e-07,0.0005604074139835557,-0.007447546160580684,-49.12366511075142,54.967830517145785,5.099398704226344,-1656301.2189595879,5095134.352511717,3594141.0350952297,-232.97022988668786,-5260.456757362945,7314.222988522292,0.9946788238011643,-1.1843899448347249e-05,0.00011453295335050003,0.10302438654734558
0.41000000000000003,1.9797177380636984e-05,0.00056871860390018,-0.007459674029204688,-49.11559604302238,54.95828683823554,5.097329173349077,-1656302.3830271282,5095108.050216806,3594177.6066991016,-232.65678623322412,-5260.46120735647,7314.418560227765,0.994680741664474,-1.1992789246840513e-05,0.00011592604580724724,0.10300586672193514
0.41500000000000004,-1.298299976702948e-05,0.0005511729231132435,-0.007442301928877664,-49.124987129786405,54.94438945879126,5.094847157862293,-1656303.5455275925,5095081.747899617,3594214.1792807616,-232.34339949687285,-5260.465668179638,7314.61410382987,0.9946826623017385,-1.2092174875110063e-05,0.00011734515380149329,0.102987316695891
0.42,-2.032810340248836e-05,0.0005690457893466883,-0.0074546970323916585,-49.11390558056362,54.92650852294777,5.0946331890510494,-1656304.7064610887,5095055.445560208,3594250.752839986,-232.02999892114292,-5260.470095551136,7314.809585725555,0.994684578123305,-1.2268552631054967e-05,0.00011871219146255634,0.10296880984337432
0.425,-4.539244164231808e-06,0.000567656206543273,-0.007433128531848829,-49.11734348174635,54.92043423038017,5.094326025713274,-1656305.8658278016,5095029.143198685,3594287.3273764835,-231.7166862823369,-5260.474513588476,7315.005013410368,0.9946864967832538,-1.2467800084035397e-05,0.00012012178257161917,0.10295027213353693
0.43,1.7426739969564927e-05,0.0005425951983412851,-0.007426600911435521,-49.1198877812969,54.898156771379675,5.09296060943927,-1656307.0236279548,5095002.840815101,3594323.9028900727,-231.40337498118848,-5260.4789197748,7315.200422228502,0.9946884095464106,-1.262742099802728e-05,0.0001215319824813796,0.10293178801787976
0.435,-8.756139058551528e-06,0.0005761429779668544,-0.007436059247328124,-49.11489207769438,54.893519535351125,5.087713696530423,-1656308.179861635,5094976.538409594,3594360.479380489,-231.09009712924325,-5260.4832830322175,7315.395744220284,0.9946903202930226,-1.2725967713836921e-05,0.00012288551531412727,0.10291332009299893
0.44,-3.1217545513299938e-06,0.0005559498086217164,-0.0074340321366797996,-49.108309805444,54.87726182634508,5.093196638860183,-1656309.3345290015,5094950.2359822,3594397.056847465,-230.7768494027871,-5260.487674497409,7315.5910464871395,0.9946922331166973,-1.2898258255218737e-05,0.0001243157355149269,0.10289482861908407
0.445,1.0023121123270903e-06,0.000574882160835277,-0.007443464259280591,-49.11788634623529,54.86639936259863,5.086303450976802,-1656310.4876303095,5094923.933532943,3594433.635290865,-230.46367381133473,-5260.492028577729,7315.786313243503,0.9946941450797232,-1.305134253408777e-05,0.00012569719013869133,0.10287634214919107
0.45,-2.745637205975889e-05,0.0005454406356014149,-0.007424847781114261,-49.11368616759982,54.856068089468046,5.085313886993843,-1656311.6391656748,5094897.631061939,3594470.214710443,-230.1504723116,-5260.496373152195,7315.981518060965,0.9946960591167932,-1.3199043537851062e-05,0.00012712678483295652,0.10285783218640673
0.455,-1.5105920603822471e-05,0.0005712514667382114,-0.00739563450998483,-49.11876603946636,54.84903356510584,5.0825301573977075,-1656312.7891351385,5094871.328569219,3594506.7951059663,-229.83731320473936,-5260.500714498811,7316.176691307884,0.994697968029615,-1.340993724424591e-05,0.00012847584867814902,0.10283936849225134
0.46,7.98840413589857e-06,0.0005537904349863896,-0.00744205905138736,-49.099061868214456,54.83582096312077,5.085378913078802,-1656313.937538788,5094845.026054813,3594543.3764772783,-229.52414660163006,-5260.505048171665,7316.371833415855,0.9946998690805529,-1.3596745064529656e-05,0.00012989227369314833,0.10282097740372215
0.465,-2.5916973032916502e-05,0.0005750478410060809,-0.007422205296964836,-49.10246676195516,54.81881472212486,5.075432312458156,-1656315.0843769093,5094818.72351872,3594579.958824252,-229.21110192337323,-5260.509388759546,7316.566956054484,0.9947017817273435,-1.3721649750222272e-05,0.00013127121232276343,0.10280247082650011
0.47000000000000003,1.6824557382830385e-06,0.0005661603828193773,-0.007425930938483415,-49.106278042934036,54.805106098644686,5.083985064345375,-1656316.2296498297,5094792.420960922,3594616.5421466134,-228.89806622311752,-5260.5137305177395,7316.761988531449,0.9947036889180737,-1.393632554793273e-05,0.0001326942996456003,0.10278401359539273
0.47500000000000003,-1.0229253108822285e-05,0.0005702112062056343,-0.007425433285414705,-49.10440844285272,54.79436137635049,5.081804967099373,-1656317.3733576338,5094766.118381578,3594653.126444074,-228.5850553784855,-5260.5180072264575,7316.956995578632,0.9947055967253727,-1.4080085721161305e-05,0.00013410237777419957,0.1027655470550494
0.48,-2.092181324709609e-05,0.0005746522788409486,-0.007423228775377741,-49.105411391250406,54.7870639327021,5.085482804204114,-1656318.5155004614,5094739.81578086,3594689.7117164726,-228.27207568414332,-5260.522279636501,7317.151964038042,0.994707504058228,-1.4254508044009286e-05,0.00013551746903237396,0.10274708172047924
0.485,1.955635034631046e-05,0.000574541793104422,-0.0074348610819855426,-49.10021584118176,54.77031991893071,5.0819221371040975,-1656319.6560784394,5094713.513158845,3594726.297963687,-227.9591155151093,-5260.526526640105,7317.346921838602,0.9947094104782104,-1.4456660307694299e-05,0.00013694085766945916,0.10272862183587268
0.49,4.216136150257986e-06,0.0005731643763886765,-0.007425513368499622,-49.09959621675383,54.75855012670993,5.082296438964202,-1656320.7950917545,5094687.210515608,3594762.8851855313,-227.64621051124809,-5260.530767918126,7317.541815647961,0.9947113195419481,-1.4558128147983072e-05,0.00013837436675050936,0.10271013297485251
0.495,-7.947472461811577e-06,0.0005567368642733409,-0.007406277486323779,-49.09506445180242,54.74931313508674,5.0712382456777085,-1656321.9325406211,5094660.907851214,3594799.473381752,-227.33333620687714,-5260.534989888924,7317.736672818908,0.99471322586007,-1.469738677463255e-05,0.00013980051180514566,0.10269166732922883
0.5,5.427532231660344e-06,0.0005386042357564245,-0.007436296335932668,-49.096581475501026,54.725558883059364,5.069600474095284,-1656323.0684251888,5094634.605165611,3594836.062552122,-227.02049084220928,-5260.539251462792,7317.931474947452,0.9947151269011842,-1.4862669507612806e-05,0.00014118268310620081,0.10267324948842359
0.505,-9.00116750830905e-06,0.0005543150025879151,-0.00740951175828267,-49.09317700266799,54.716293402764734,5.06185277562928,-1656324.2027456304,5094608.302458807,3594872.65269627,-226.70768575878108,-5260.543469863387,7318.126184304681,0.9947170353102578,-1.4990047692348125e-05,0.00014252319438128798,0.10265475695752672
0.51,1.3634788954740972e-06,0.000548415990723848,-0.007415404864012315,-49.08592453295651,54.70111823108657,5.072840090811772,-1656325.335502117,5094581.9997308515,3594909.2438138477,-226.39490885003482,-5260.54771247168,7318.320846792765,0.9947189364948711,-1.5157329474280546e-05,0.00014389907309263173,0.10263633100332814
0.515,4.933955244547809e-06,0.0005837476802378732,-0.007430593469508591,-49.083721546898474,54.694652220325956,5.071094200945714,-1656326.4666949192,5094555.69698182,3594945.8359046998,-226.0822120853445,-5260.551899804389,7318.515494038666,0.994720838850636,-1.5297324963556267e-05,0.00014526294135715594,0.102617890355224
0.52,9.817386717493693e-06,0.0005639958357918693,-0.007412880096490949,-49.08017958131311,54.67841342482311,5.068151474551499,-1656327.596324301,5094529.394211843,3594982.4289687388,-225.76954070586936,-5260.5560915882925,7318.710121515848,0.9947227447457059,-1.5437511053915235e-05,0.00014671558789694988,0.10259941189787072
0.525,5.7171366504965075e-06,0.0005539345455078359,-0.007429151895734571,-49.08647941745294,54.67231190239239,5.0762221204974685,-1656328.7243904453,5094503.091420931,3595019.0230057607,-225.4569169520712,-5260.560272916077,7318.904687396986,0.994724645760259,-1.5560480171906424e-05,0.00014812036864025066,0.1025809774536935
0.53,-5.814752165913099e-07,0.0005560924781600945,-0.007418819991362915,-49.08260888621981,54.65480803730417,5.072461740326488,-1656329.8508934688,5094476.78860924,3595055.6180156176,-225.1442924325752,-5260.564403319614,7319.099255262038,0.9947265506069967,-1.5691071616929366e-05,0.00014949907664661195,0.10256250251101821
0.535,-2.57226529970657e-05,0.0005912113780857534,-0.007422002367992791,-49.07403878310946,54.63915180496455,5.059162195132551,-1656330.9758334954,5094450.485776922,3595092.2139981417,-224.831718237741,-5260.568524291492,7319.29375436341,0.9947284524589446,-1.583787599361683e-05,0.00015088153638524802,0.10254405322863393
0.54,9.20271801278056e-06,0.000552290471552677,-0.007405811898128182,-49.0696130975408,54.61926359813317,5.068909674427373,-1656332.0992107906,5094424.1829238925,3595128.810952951,-224.5191998134093,-5260.572687313285,7319.4881694774485,0.9947303547681082,-1.6056206263244992e-05,0.0001523448851723952,0.10252559600484012
0.545,1.3351338211212544e-05,0.0005492160911392263,-0.0074227532005868525,-49.078348020363386,54.60238709942178,5.0739816739659,-1656333.2210256797,5094397.880050216,3595165.408879736,-224.20675583917,-5260.576783332443,7319.682544382874,0.9947322525998887,-1.6177701071405577e-05,0.00015372039690008082,0.10250717899675506
0.55,-3.224398553678876e-05,0.0005564591309016336,-0.0074053753691727744,-49.06442581920045,54.599480590545156,5.064374534409194,-1656334.341278359,5094371.577156231,3595202.0077782646,-223.89431588760948,-5260.5808105838405,7319.876867086643,0.9947341544308815,-1.6288097603587732e-05,0.00015508932558448075,0.10248871982163699
0.555,-4.298348823249725e-06,0.0005509762168184785,-0.007417749926071319,-49.06485289686337,54.58240803837908,5.064346332608175,-1656335.4599689918,5094345.274241941,3595238.6076483633,-223.58193725794405,-5260.5849054941145,7320.071172386923,0.9947360514609828,-1.6513731281565463e-05,0.00015646458465461385,0.10247030384430199
0.56,7.5852512765351435e-06,0.0005662746060169783,-0.007411250648134062,-49.06975972346893,54.553602257729864,5.059249670838467,-1656336.5770978192,5094318.971307256,3595275.2084898376,-223.2695936527886,-5260.588968411482,7320.265417416566,0.9947379513210209,-1.666846887381861e-05,0.00015783336702380273,0.10245185704734062
0.5650000000000001,7.755152737859977e-06,0.0005487798791767796,-0.007399519194867343,-49.06604589135839,54.544831772681015,5.058708287946069,-1656337.6926650028,5094292.668352377,3595311.8103022226,-222.9572798182085,-5260.592983238807,7320.459536635186,0.9947398491671346,-1.6797569596717813e-05,0.0001592432380723557,0.10243342637234706
0.5700000000000001,2.2500041715708024e-05,0.000555361688556947,-0.00738716730815112,-49.05825104614654,54.53676432546302,5.059158027558243,-1656338.806670712,5094266.36537743,3595348.4130851426,-222.64500384107959,-5260.596995554609,7320.653631372315,0.994741743673109,-1.692176301211934e-05,0.000160609646312791,0.1024150248370727
0.5750000000000001,-1.6536823024370814e-06,0.0005708076836106418,-0.00739602875200986,-49.06073471312149,54.52346827773595,5.054389458140701,-1656339.9191151815,5094240.062382412,3595385.016838498,-222.332783977141,-5260.601011451453,7320.847710666945,0.9947436346727823,-1.7010968260926083e-05,0.00016199619826737588,0.10239665397775902
0.58,-1.7335928302950754e-05,0.0005677806902142963,-0.007406785132349186,-49.049138856606206,54.51266853248271,5.052924709240558,-1656341.029998584,5094213.759367337,3595421.6215620995,-222.02057698135346,-5260.605018363588,7321.04173003414,0.9947455275919769,-1.7164198046384045e-05,0.0001634149786513138,0.10237826105523945
0.585,-3.536641891016754e-06,0.0005720101117355478,-0.007402383098900328,-49.046386260966734,54.493609873813966,5.051225210740952,-1656342.1393211405,5094187.456332197,3595458.2272557267,-221.70844562563335,-5260.609037945153,7321.235720722759,0.9947474229221865,-1.735565708477692e-05,0.0001648222169943452,0.10235984135434363
0.59,1.2022702986911048e-05,0.0005537896329907835,-0.007403036910167838,-49.04596715662847,54.47896289487259,5.047871702297897,-1656343.247083167,5094161.153277017,3595494.833919131,-221.39636498079972,-5260.6130340704585,7321.429641098338,0.9947493167818793,-1.751387959901137e-05,0.0001662435047188924,0.10234143255957293
0.595,1.2338422951554413e-06,0.0005476443110354933,-0.007392774599548555,-49.04238580203445,54.46574011283174,5.04410585317412,-1656344.3532848656,5094134.850201885,3595531.44155199,-221.08431446819944,-5260.617018532408,7321.623502477104,0.9947512104744324,-1.7628746485045454e-05,0.00016762346124970105,0.10232302209793283
0.6,-1.2598370678135144e-05,0.000567988089821996,-0.00738953396356836,-49.039260349184,54.451071762327096,5.047359316788722,-1656345.4579264147,5094108.547106832,3595568.0501540266,-220.7723051349608,-5260.621002713232,7321.817312148308,0.9947531012017615,-1.776886762529445e-05,0.00016898537563690786,0.10230463712700517
0.605,-3.271585192636613e-06,0.0005529059262492449,-0.007388125595792419,-49.03893428211938,54.43585110318394,5.042979331981957,-1656346.5610080438,5094082.243991938,3595604.6597250155,-220.4603465443619,-5260.624954703386,7322.011083462539,0.9947549907494749,-1.7948589639469976e-05,0.0001703943449538361,0.10228626018497
0.61,-1.4226275699083569e-05,0.0005492139472287487,-0.0073632622350901745,-49.032595727105424,54.41812116924164,5.04308789840218,-1656347.6625299535,5094055.940857308,3595641.2702647005,-220.1484173653186,-5260.628897563963,7322.204790473633,0.9947568796025085,-1.810125963619025e-05,0.00017176819163679737,0.10226788670698789
0.615,1.1422631722810617e-05,0.0005516930226616745,-0.007384572192559523,-49.032663284558794,54.39669892054729,5.044661915248278,-1656348.762492384,5094029.637703014,3595677.881772778,-219.83655482964716,-5260.632820214718,7322.398440606419,0.994758761759711,-1.8280218157081126e-05,0.0001731300570497219,0.10224957503140894
0.62,1.4130477353275343e-05,0.0005590866619029275,-0.0073950072037382245,-49.02642578375643,54.37869614028032,5.036188129673599,-1656349.860895618,5094003.334529225,3595714.4942489234,-219.524738785147,-5260.636695246109,7322.592017534088,0.9947606490244018,-1.8396033417774517e-05,0.00017450464310933228,0.10223121031400545
0.625,5.876466410322498e-07,0.0005599626068648584,-0.007379011450317559,-49.0235129211069,54.37240273414025,5.043937829929565,-1656350.957739911,5093977.031336029,3595751.1076927483,-219.2129784114063,-5260.640583036916,7322.785512391116,0.9947625386115142,-1.850700873057508e-05,0.00017589830794840467,0.10221281960914502
0.63,-1.8952180644441812e-05,0.0005514400876096492,-0.007390315563959012,-49.0129383609999,54.357397188176876,5.043800111787387,-1656352.0530255032,5093950.728123473,3595787.7221040674,-218.9012584004361,-5260.644439614151,7322.979015283209,0.9947644237689766,-1.8651880586617074e-05,0.00017729069123303086,0.10219446865508042
0.635,1.3656677904946041e-05,0.0005485875175881617,-0.007388653291007345,-49.016440378712716,54.33669326273595,5.032666333361155,-1656353.146752696,5093924.424891644,3595824.3374827937,-218.58961873439486,-5260.6482918598085,7323.172475216113,0.9947663114763802,-1.8843173873305242e-05,0.00017865688702672463,0.10217608956271995
0.64,2.3452005324733583e-05,0.0005501239943738912,-0.0073585993966055595,-49.01585314079412,54.323247993504935,5.036375216646134,-1656354.2389217243,5093898.121640561,3595860.953828548,-218.27799257201895,-5260.652141183288,7323.3658264572405,0.9947681984206082,-1.8952642265117027e-05,0.00018002431835014744,0.1021577145547984
0.645,4.205448185075631e-06,0.0005518022172315705,-0.0073763426159169495,-49.00172960122094,54.3093391922918,5.032327655902699,-1656355.329532716,5093871.818370324,3595897.571140973,-217.96640411668227,-5260.655954064109,7323.559143429117,0.994770077349099,-1.9038129331238843e-05,0.00018139807380232364,0.10213941424913374
0.65,-1.3191090501560164e-05,0.0005845067988524265,-0.007391107834097269,-49.005588606607276,54.29319015818292,5.038020618310626,-1656356.4185859885,5093845.515080969,3595934.189419866,-217.65490488066962,-5260.659787777532,7323.7524139191855,0.9947719604672547,-1.9171917716912805e-05,0.00018277108738264537,0.10212106979121371
0.655,2.3636840297167897e-06,0.0005632881009379121,-0.0073747065915249045,-48.99478935231706,54.28338549448476,5.033991336895135,-1656357.506081828,5093819.211772595,3595970.808665003,-217.34343085758482,-5260.663561890597,7323.9456409504555,0.9947738469982582,-1.9357326382044954e-05,0.0001842209928117051,0.1021026885846089
0.66,1.7711625688427393e-05,0.0005937409935270618,-0.007392649585146459,-49.000131020490166,54.2566663258262,5.032834279559812,-1656358.5920204644,5093792.908445291,3596007.428876194,-217.0320237664199,-5260.667359371201,7324.138835444537,0.9947757290123198,-1.949862756439742e-05,0.00018562209991770863,0.10208434812569131
0.665,-1.625295283727393e-05,0.0005719702193076561,-0.0073980570550641125,-48.9877499624514,54.24724337778444,5.030542432246686,-1656359.6764021378,5093766.605099151,3596044.050053091,-216.7206456049203,-5260.671096986033,7324.331923179308,0.9947776152511991,-1.9609539576197082e-05,0.00018710285754302286,0.10206596300003225
0.67,-1.758230329875837e-05,0.0005403516540617337,-0.007366229605854079,-48.988500322965095,54.22748848228825,5.039350191463301,-1656360.7592271094,5093740.30173427,3596080.6721953643,-216.40934300959128,-5260.674855196066,7324.524986136501,0.9947795025362435,-1.9799366979109235e-05,0.0001885208055732046,0.10204756440814745
0.675,7.252042567595064e-06,0.0005721245220294585,-0.007366440767390293,-48.97196511483968,54.20599295080933,5.0305405056594035,-1656361.840495692,5093713.998350783,3596117.2953028353,-216.0980900802685,-5260.6785396766145,7324.718002344694,0.9947813813755895,-1.9984418907445896e-05,0.00018985978222026617,0.10202924493673426
0.68,-1.0209759271731666e-05,0.0005587108001550824,-0.007362437541829539,-48.97374860740818,54.19298875246458,5.020172903718176,-1656362.9202082793,5093687.6949488055,3596153.919375166,-215.78694477464032,-5260.682251381071,7324.910929938509,0.9947832599156574,-2.011581347129788e-05,0.00019128411100962722,0.10201092489199703
0.685,1.8150272817506444e-05,0.0005363745887803801,-0.007382374820393764,-48.961965941245374,54.178401248189175,5.020093247467533,-1656363.9983651603,5093661.391528231,3596190.54441195,-215.47580765783513,-5260.685978205208,7325.103783667517,0.9947851371011411,-2.0287212018868025e-05,0.00019267062733376402,0.1019926147773568
0.6900000000000001,-3.247285531672746e-06,0.000561656785363768,-0.007359909612009795,-48.95851943367707,54.15546798020894,5.029234891184566,-1656365.0749665683,5093635.0880890265,3596227.1704129023,-215.16475555673097,-5260.689703864078,7325.296597243378,0.9947870190426624,-2.0382394495301825e-05,0.0001940088245377452,0.10197425503207953
0.6950000000000001,1.2617633523821307e-05,0.000553307344776887,-0.007366060849102928,-48.97329822233231,54.156569443823976,5.01308919525847,-1656366.1500129024,5093608.784631377,3596263.7973777843,-214.85377807504722,-5260.69335578166,7325.4893555970375,0.9947888949039563,-2.053722643475951e-05,0.00019540444382246637,0.10195595113131513
0.7000000000000001,1.2108753257750176e-05,0.0005706449810841628,-0.007366708772046408,-48.95374344452118,54.12285062549162,5.022203157945757,-1656367.2235041414,5093582.481155359,3596300.425306349,-214.5427175758773,-5260.697051216492,7325.682070243645,0.9947907719990295,-2.0650477571047443e-05,0.00019678334170511905,0.10193763189052907
0.705,-1.1799369616853912e-05,0.0005484791834193912,-0.0073693647250307765,-48.942258897720095,54.12026206090903,5.018598266342298,-1656368.2954404939,5093556.177661028,3596337.054198273,-214.2318233462738,-5260.700681366454,7325.87469932258,0.9947926489113206,-2.076941298649189e-05,0.00019820522810358587,0.10191931100295555
0.71,9.749602164268094e-06,0.0005644162367216421,-0.007369195270522629,-48.94988498720841,54.095127314646405,5.023141515159703,-1656369.3658225185,5093529.874148447,3596373.684053338,-213.92098655472518,-5260.704351072098,7326.067326857691,0.9947945261706045,-2.0942160966054203e-05,0.00019956589661654787,0.10190098348829262
0.715,3.671346634862996e-06,0.0005476978174089274,-0.00734817751508,-48.940028366316206,54.07283789175853,5.011806920516952,-1656370.434650417,5093503.570617726,3596410.3148713256,-213.6101728174235,-5260.707937372881,7326.259868045245,0.9947964030403227,-2.1065376859511383e-05,0.00020097168995727242,0.10188265634869131
0.72,-1.1673613222343658e-05,0.0005721096832737819,-0.007333984686896977,-48.93893499292335,54.062316583605146,5.006335159494088,-1656371.5019244365,5093477.267069019,3596446.9466517577,-213.29943496198575,-5260.711545230027,7326.452304731285,0.9947982742261569,-2.119944046029035e-05,0.00020233435760592038,0.101864381449315
0.725,2.6033895004271168e-05,0.0005519425398905174,-0.007361726293172511,-48.93011778807989,54.04223231614586,5.017764639443936,-1656372.5676448236,5093450.963502255,3596483.5793942534,-212.9887199113444,-5260.7151604917,7326.644693680544,0.9948001414474497,-2.1377876472631793e-05,0.00020375383038119185,0.1018461418193995
0.73,-8.00424747623592e-06,0.0005591802834764006,-0.007384839181735903,-48.91396162079185,54.0265412900797,5.014084109335572,-1656373.6318118765,5093424.659917577,3596520.213098612,-212.67810125271325,-5260.718710472679,7326.837049803675,0.9948020154068121,-2.1457413158216645e-05,0.00020513274682251468,0.1018278331434007
0.735,3.0846979546582846e-06,0.0005666517593224469,-0.00734506579616405,-48.916305738280876,54.00107015064973,5.009112668160119,-1656374.6944260912,5093398.3563151015,3596556.847764624,-212.3675845630319,-5260.722279865799,7327.029354876357,0.9948038949045364,-2.16234572307051e-05,0.00020652099718291588,0.10180946696780317
0.74,-3.3662857478188135e-06,0.0005360440858950802,-0.007336778781277091,-48.90866947629365,53.99254579866151,5.004529640218499,-1656375.75548781,5093372.052694868,3596593.4833918866,-212.05710298370155,-5260.725813418085,7327.221550081187,0.9948057639365072,-2.176380411289359e-05,0.00020793065365522814,0.10179119966815665
0.745,-1.1547094182445634e-05,0.0005439447181854808,-0.007355148660763695,-48.905573060620874,53.97387596205574,5.000237701921903,-1656376.814997245,5093345.749056913,3596630.1199800456,-211.74667104641648,-5260.7293688505015,7327.413713625937,0.9948076305382254,-2.191240138983374e-05,0.00020926254714971834,0.10177295294897673
0.75,1.533864524453386e-05,0.0005643723463134049,-0.007328120044371086,-48.89819184009994,53.94973011324922,4.997728572642982,-1656377.8729546405,5093319.445401209,3596666.757528833,-211.4362871099373,-5260.732912472982,7327.605801296574,0.9948095014719218,-2.2083364272993505e-05,0.00021061200712756904,0.10175466051289264
0.755,1.5447021623023667e-05,0.0005801819250073289,-0.007340550255427783,-48.90435646789833,53.93797884354469,4.997874512747302,-1656378.9293603147,5093293.141727844,3596703.3960378347,-211.12598257700466,-5260.73643352803,7327.7977994603625,0.9948113651835911,-2.21926439606197e-05,0.00021201911189587522,0.10173643524786165
0.76,2.311237813275203e-06,0.0005514825637230999,-0.007334380471721306,-48.89645340588444,53.920373789037825,5.001263045821241,-1656379.9842144654,5093266.838036955,3596740.0355067197,-210.8156777233174,-5260.739922057205,7327.989754501363,0.9948132317119034,-2.230568171966092e-05,0.00021346556233878963,0.10171817903319547
0.765,-9.488319673468048e-06,0.0005603957594880633,-0.007335902789139887,-48.889698401822045,53.900974250849366,4.998161610379635,-1656381.0375172857,5093240.534328698,3596776.6759352647,-210.5054503512973,-5260.743380745531,7328.18166353595,0.9948150963491135,-2.244408719049378e-05,0.00021483729642261345,0.10169993813716505
0.77,-3.332916856584163e-06,0.0005582337943292831,-0.007350986132788404,-48.88120478007554,53.876869400268625,4.999595726224815,-1656382.089269137,5093214.230603175,3596813.317323174,-210.19529020876922,-5260.7468287340935,7328.373500129758,0.9948169610314678,-2.261410559480054e-05,0.0002162281977669519,0.10168169342651523
0.775,-6.115203799049187e-06,0.0005417829417286417,-0.007351206314529833,-48.87497617535038,53.85535861296457,4.996520206941248,-1656383.139470411,5093187.926860501,3596849.9596700724,-209.88521940927535,-5260.750240935816,7328.565259317397,0.9948188292123512,-2.2768273816544176e-05,0.0002176152860156818,0.10166341116527546
0.78,-3.887477944366099e-06,0.0005730404580954913,-0.007334214543214275,-48.86679406157886,53.8401619908103,4.987364225969161,-1656384.188121503,5093161.623100807,3596886.6029755636,-209.57521733292964,-5260.753636427141,7328.756937139122,0.9948206971201142,-2.292518070445824e-05,0.0002189607529912093,0.10164512832435516
0.785,-2.3867551257028144e-05,0.0005665146824423843,-0.007327687006402411,-48.859598794614506,53.82373787993578,4.994550901489076,-1656385.23522273,5093135.319324072,3596923.247239266,-209.26527350526575,-5260.7570576678645,7328.948543843022,0.9948225603559078,-2.308448074946058e-05,0.00022038452602062884,0.10162688770538932
0.79,-1.292034804808911e-05,0.000564335699145155,-0.007307220228022134,-48.85709964621442,53.80537100185067,4.988448844523589,-1656386.2807744304,5093109.015530339,3596959.892460924,-208.9554066860266,-5260.760435352873,7329.140119318722,0.9948244215995363,-2.329181077377661e-05,0.00022178699309851385,0.10160866329781844
0.795,9.664668268240384e-06,0.0005579613019044162,-0.0073475618564022,-48.84651486719429,53.78666211431047,4.987650701265875,-1656387.3247769028,5093082.711719732,3596996.538640259,-208.64558227152403,-5260.763807784392,7329.331614560942,0.9948262773110896,-2.347134957040106e-05,0.00022318682285571873,0.10159048975222454
0.8,2.0505052707498083e-05,0.0005616775417850313,-0.007317878588174704,-48.84005517151386,53.768322843507725,4.987281125477056,-1656388.3672304682,5093056.407892288,3597033.1857769196,-208.33584390585716,-5260.76716983292,7329.52304975586,0.9948281429375477,-2.3593121503798684e-05,0.00022457653268288707,0.10157221582783241
0.805,5.365960727233426e-06,0.0005492345121326698,-0.007299456590444084,-48.83226335386996,53.755740692746954,4.985867822321018,-1656389.4081355105,5093030.104048083,3597069.8338706046,-208.02617301487197,-5260.770512211306,7329.71442420654,0.994830000688802,-2.3688859631805718e-05,0.00022597823943966495,0.10155401568717828
0.81,-5.606076742089077e-06,0.0005714200142768696,-0.00732474434469923,-48.825805709038264,53.72881226796042,4.983790786385916,-1656390.4474923527,5093003.800187165,3597106.4829210634,-207.71656380519832,-5260.7738549107735,7329.905759450642,0.9948318534350712,-2.381908030257122e-05,0.00022734515687460039,0.1015358613386036
0.8150000000000001,-2.880395484966852e-06,0.0005620608270416682,-0.007321536932792544,-48.82335583080079,53.71661897906315,4.985517237637418,-1656391.4853013505,5092977.496309615,3597143.1329279477,-207.4070353390697,-5260.777164930153,7330.096994230336,0.9948337122527178,-2.3982235229051222e-05,0.00022876446469964303,0.1015176440681559
0.8200000000000001,6.779675659466084e-06,0.000566841180670939,-0.0073398655721017446,-48.810378953669264,53.69155458781462,4.979686998474579,-1656392.5215628087,5092951.192415571,3597179.7838909226,-207.09754792775772,-5260.7804528453935,7330.28819568727,0.9948355699264151,-2.4136234007343932e-05,0.00023016118731426763,0.10149943473958395
0.8250000000000001,-6.3060522211986e-07,0.000553325005432184,-0.007304757406719011,-48.81199467637132,53.66488316018953,4.974282687691928,-1656393.5562770842,5092924.888505087,3597216.43580966,-206.78816230382088,-5260.783740537635,7330.479299224749,0.9948374319126938,-2.426743087605948e-05,0.00023157224913910812,0.10148117978591649
0.8300000000000001,5.979502077583442e-06,0.0005468033914029894,-0.007322213710607586,-48.80215094543796,53.65728051378141,4.973285393528655,-1656394.5894445314,5092898.584578254,3597253.088683626,-206.47881652183088,-5260.786992699509,7330.670287340969,0.9948392846639785,-2.4413608379808287e-05,0.00023294781701309943,0.10146301212044614
0.835,1.3039763318844574e-05,0.0005482246661847047,-0.007304115853384675,-48.79486784872446,53.640892428736805,4.971875956530921,-1656395.6210654054,5092872.280635124,3597289.742512493,-206.1695331152615,-5260.7902591676375,7330.861259291849,0.9948411415129367,-2.454170179883488e-05,0.00023430884055224838,0.10144480100187167
0.84,7.4478131270323625e-06,0.0005382925760266414,-0.007307312841220424,-48.78708914002974,53.61662323575848,4.973251710899964,-1656396.6511400281,5092845.976675686,3597326.3972960813,-205.8603159565791,-5260.793516186799,7331.052176135237,0.994842993437256,-2.4652585464855077e-05,0.00023567519054657458,0.101426634856207
0.845,1.556676472022542e-05,0.0005615424527304095,-0.007301571415680325,-48.78336366654562,53.59441674846587,4.969503779992138,-1656397.6796687806,5092819.672700057,3597363.053034057,-205.5511850586954,-5260.796735695467,7331.243014057049,0.9948448458440322,-2.4774860341198593e-05,0.00023701542015732948,0.10140846072917531
0.85,-1.5446372997306812e-06,0.000563977992072943,-0.007328990305043885,-48.77673238635546,53.57661824641171,4.964374456506291,-1656398.7066520231,5092793.368708381,3597399.7097260016,-205.24211194365907,-5260.79993431484,7331.433763708482,0.994846696448331,-2.4882833399880133e-05,0.0002384155334201747,0.10139030084145355
0.855,-2.768860636389218e-05,0.0005303711864173045,-0.007280099942567093,-48.772002346074174,53.55309139947324,4.975520313967473,-1656399.7320900527,5092767.0647007115,3597436.3673715144,-204.93309990793884,-5260.80313351707,7331.6244415607725,0.9948485536654313,-2.5033998197498324e-05,0.00023981736504233455,0.10137207273568878
0.86,3.4914778222922507e-06,0.0005567152648980428,-0.007305296641117125,-48.75499515917103,53.534519775055905,4.95660240489403,-1656400.7559832316,5092740.760677247,3597473.025970289,-204.62417166386768,-5260.806252165387,7331.815068301787,0.9948503981771218,-2.5241639920502026e-05,0.00024112898976804518,0.10135396620997196
0.865,1.933576805569279e-06,0.0005484709688114621,-0.00728461867679379,-48.753259018195365,53.515987079540906,4.9665996083144694,-1656401.7783319976,5092714.456638004,3597509.685521935,-204.31533465827584,-5260.809445300235,7332.005590123542,0.9948522487268361,-2.5378423218365237e-05,0.00024251403442855226,0.10133579696255544
0.87,1.477598407044839e-06,0.0005570187566494142,-0.007308712753665113,-48.74284220369042,53.49022596456292,4.966733274406189,-1656402.7991367278,5092688.152582971,3597546.346026099,-204.00655750395836,-5260.8125676839345,7332.1960753616395,0.9948540937101151,-2.5516980068546096e-05,0.00024387818100076635,0.10131767911150671
0.875,-4.182675477065354e-06,0.0005544834916817756,-0.007295659358370522,-48.74810945076994,53.47240018398427,4.96141091413616,-1656403.8183978205,5092661.848512404,3597583.0074824733,-203.69787948040948,-5260.81565940703,7332.386474294167,0.9948559444580966,-2.5658850785189804e-05,0.0002452634699619727,0.10129950130105533
0.88,1.371083134632754e-05,0.0005569225452142771,-0.007289506453781415,-48.72696781740163,53.44775560746156,4.963696138955549,-1656404.8361155414,5092635.544426436,3597619.669890636,-203.38920897040094,-5260.818728011663,7332.57679082993,0.9948577915680449,-2.5814149329568903e-05,0.0002466410206624394,0.10128135592590212
0.885,-1.8251669360894937e-06,0.0005411841550599717,-0.007312065339640643,-48.72341781559735,53.42922234630221,4.950041673614705,-1656405.85229028,5092609.24032516,3597656.3332502143,-203.0806864115486,-5260.821782039584,7332.767040560234,0.9948596367871101,-2.5925557911392364e-05,0.0002480291686526291,0.10126322580886091
0.89,-2.2998614467612627e-06,0.0005365578293870216,-0.0072919498596246924,-48.71920879139512,53.40824737101973,4.951657044176289,-1656406.8669224996,5092582.936208549,3597692.9975607884,-202.77220145772142,-5260.824862210078,7332.957189054127,0.9948614873925933,-2.6071636516246766e-05,0.000249374238311572,0.1012450395612356
0.895,8.682794439711831e-06,0.0005519720048302501,-0.0073041904462344915,-48.71165079818485,53.3971720336362,4.947374783636627,-1656407.8800124559,5092556.632076633,3597729.662821935,-202.46378106162254,-5260.827904145543,7333.147269651239,0.9948633325761086,-2.621771222861308e-05,0.0002507076826638024,0.10122690331057525
0.9,1.6292915671347515e-07,0.0005566563165943084,-0.007272561172610759,-48.69638651745725,53.37115159215405,4.94480486311134,-1656408.8915604455,5092530.327929472,3597766.3290333813,-202.15541478646384,-5260.830960641695,7333.337308814898,0.9948651805153552,-2.634038082323838e-05,0.00025208224297529927,0.10120873657385962
0.905,9.567465120909891e-06,0.0005351674822871656,-0.0072780764032743675,-48.693841329414525,53.34545297461673,4.941848874514954,-1656409.9015668985,5092504.023767054,3597802.996194796,-201.84716635586477,-5260.834006462592,7333.527257103756,0.9948670201159814,-2.6485405002589172e-05,0.0002534663002201063,0.10119064847556612
0.91,8.72345846811582e-07,0.0005469691526413947,-0.007273440922648666,-48.68959282258467,53.331499958594925,4.9402526667903475,-1656410.9100322584,5092477.719589493,3597839.664305699,-201.53897763908748,-5260.837017747128,7333.717104100537,0.9948688607951012,-2.6601605838572362e-05,0.00025479928981176047,0.10117254662176955
0.915,2.137384092251867e-06,0.0005561089093445745,-0.00730213015551485,-48.68258952413728,53.30929608828975,4.941130303540485,-1656411.9169567944,5092451.4153969,3597876.333365716,-201.23083682440213,-5260.840019580479,7333.906902712646,0.9948706999626893,-2.6742414984040213e-05,0.0002561594331443748,0.1011544562683067
0.92,6.363396450613687e-06,0.0005406247800069298,-0.007276481400615928,-48.664078591365445,53.28547674709452,4.945520696160158,-1656412.9223408224,5092425.111189378,3597913.0033745444,-200.9227743114557,-5260.842988927707,7334.096628645549,0.9948725460474792,-2.688240743720949e-05,0.0002575426265744316,0.10113629452445917
0.925,8.146182813808304e-07,0.0005390857492259543,-0.007294413807810837,-48.662790089658564,53.263662954457,4.938502557310482,-1656413.926184881,5092398.806967077,3597949.674331853,-200.61484913536552,-5260.84593185415,7334.286294783593,0.9948743853252167,-2.700795748943354e-05,0.0002588883783123628,0.1011181965382602
0.93,2.1517328954993086e-06,0.0005451981681334442,-0.007281470816592027,-48.65197592582897,53.24143397443115,4.938570989304117,-1656414.9284894182,5092372.50273009,3597986.346237248,-200.306965793147,-5260.8488625833315,7334.4758629820435,0.9948762288049589,-2.7146930922012922e-05,0.0002602288981912866,0.10110005392079613
0.935,-1.2441208212842675e-05,0.000555024098107581,-0.007253362624585125,-48.65358658449355,53.223065778970515,4.930481660961093,-1656415.929254775,5092346.198478505,3598023.019090303,-199.99917684063968,-5260.8517717890145,7334.665359316179,0.9948780686773824,-2.728411518102211e-05,0.000261584959568329,0.10108194345998585
0.9400000000000001,9.889427319687525e-06,0.0005618200708719061,-0.007278683194463084,-48.635058594011234,53.202441092536134,4.929938494842101,-1656416.9284812398,5092319.8942123875,3598059.6928906175,-199.6914091281391,-5260.8546749773295,7334.854766294234,0.9948799011090191,-2.746005960217827e-05,0.00026296177407426457,0.10106390288504989
0.9450000000000001,-9.709806712256734e-06,0.0005319825042780937,-0.007274474460719517,-48.62264448641043,53.18130881478924,4.916662336974381,-1656417.9261691794,5092293.589931754,3598096.3676378145,-199.38376667461995,-5260.857578495157,7335.044112575641,0.9948817396049897,-2.7582196977734e-05,0.00026436113174938637,0.10104579928410692
0.9500000000000001,3.377510982157813e-05,0.0005433031721594993,-0.007273456839109849,-48.616470285930376,53.16079163944276,4.918523107943957,-1656418.9223191126,5092267.285636511,3598133.043331485,-199.0762066677943,-5260.860518817702,7335.233355448744,0.9948835767250445,-2.7745541460750557e-05,0.0002656813264506821,0.10102770613252733
0.9550000000000001,-8.121308862103035e-06,0.0005516554650158687,-0.007261826952291982,-48.60155994552344,53.13689335179887,4.924246809330127,-1656419.916931428,5092240.981326652,3598169.7199712093,-198.76871941732767,-5260.8634249443185,7335.422534506087,0.9948854132527759,-2.7803588438177448e-05,0.00026704066095402574,0.10100961544872539
0.96,5.775008063233718e-06,0.0005514050475631533,-0.007244888084766895,-48.59328751524255,53.11271307413861,4.9312643634777995,-1656420.9100066144,5092214.67700236,3598206.397556681,-198.46135516116288,-5260.866291739826,7335.611654117147,0.9948872465048972,-2.796794213649558e-05,0.0002684101902600702,0.10099155368479029
0.965,-7.981762377895835e-06,0.0005512734195853968,-0.007258974656822869,-48.58821673188207,53.09634427721309,4.926827806711921,-1656421.901545218,5092188.372663881,3598243.0760875945,-198.1540862769516,-5260.869099870051,7335.800711194366,0.994889075152421,-2.809765806282736e-05,0.0002697826063454767,0.10097353400880599
0.97,6.137511415600651e-06,0.0005397468461796785,-0.007268038229331211,-48.575432279332404,53.06895584018849,4.913072168762612,-1656422.8915476077,5092162.068311366,3598279.7555636293,-197.84686962019745,-5260.871905799302,7335.989702749468,0.994890907026093,-2.8261566404850335e-05,0.0002711512212897825,0.10095547927228668
0.975,2.3390838633731118e-07,0.0005319705653289615,-0.007268007518918942,-48.57214513369087,53.05584917693673,4.9158491347543025,-1656423.8800141509,5092135.76394476,3598316.435984297,-197.53974767397133,-5260.874736810589,7336.178564391555,0.9948927408662124,-2.8387453861859985e-05,0.0002724947298412547,0.10093740195036904
0.98,-1.6494012609965577e-05,0.0005351171936705066,-0.007247273101790238,-48.56118279882201,53.030990739255905,4.92259380102415,-1656424.8669452034,5092109.459564066,3598353.1173491892,-197.23267334063019,-5260.877541048094,7336.36739246082,0.9948945743732102,-2.852606262421974e-05,0.00027381740715514167,0.10091932467590313
0.985,-5.053116497605796e-06,0.0005520061604970503,-0.007240673711379633,-48.5542273775652,53.010688295965515,4.911259913604261,-1656425.852341155,5092083.155169483,3598389.799658062,-196.92570728906927,-5260.880291651042,7336.556156697254,0.9948964023163033,-2.8707057366841632e-05,0.0002751436918395294,0.10090129895065836
0.99,4.619145285648271e-06,0.000538796771815096,-0.007228804122337701,-48.54851690657945,52.98062039598156,4.911347256280897,-1656426.8362024236,5092056.850761099,3598426.482910508,-196.61880011610705,-5260.883062099676,7336.744821679148,0.9948982282557481,-2.8863851591479166e-05,0.0002765148698408144,0.1008832895973272
0.995,-2.360625981543057e-05,0.0005426961995737807,-0.007259249669762855,-48.53778465111752,52.95439896963498,4.91553128381479,-1656427.81852937,5092030.546338988,3598463.167106009,-196.31197848558264,-5260.885782379836,7336.933378663108,0.994900050884099,-2.8993248794555983e-05,0.00027785563303811507,0.10086530972765571
1.0,-7.161766971416148e-07,0.0005573250899360358,-0.007247460501508063,-48.52465125583238,52.93699484949222,4.901828145097211,-1656428.7993224743,5092004.2419033935,3598499.852244103,-196.00526322882587,-5260.888455448501,7337.121858874002,0.994901880856821,-2.9193854071646854e-05,0.00027919897537860615,0.10084725411835045
1.0050000000000001,-2.4657548399497636e-06,0.0005226614836583003,-0.0072570206709171034,-48.51459480669014,52.91472898909823,4.9074786145114535,-1656429.778582198,5091977.937454312,3598536.538324375,-195.6986262864583,-5260.89117701403,7337.310250107119,0.9949037075197127,-2.9341205851970096e-05,0.00028058447526860123,0.10082922778131297
1.01,9.120024472864621e-06,0.0005460641609281059,-0.007237829565127447,-48.508988471677185,52.89655215563084,4.898217820842015,-1656430.7563089824,5091951.632991737,3598573.225346461,-195.39208745509805,-5260.893853281047,7337.498584191801,0.9949055362877939,-2.948417822150277e-05,0.00028188331596705165,0.10081117763609707
1.0150000000000001,-1.3701235181900177e-05,0.0005427421344098838,-0.007242399595489451,-48.49741945246837,52.85885751768356,4.8940883916528675,-1656431.7325032018,5091925.328515745,3598609.913310002,-195.0856002644728,-5260.896543321262,7337.686832323064,0.9949073598751549,-2.9604218295854232e-05,0.00028324328656013356,0.1007931751810604
1.02,1.3664806370904596e-05,0.0005506740199148007,-0.0072559398241649215,-48.49710571432992,52.83659811901304,4.892152867312923,-1656432.7071652855,5091899.024026401,3598646.6022144193,-194.7792331713248,-5260.899194274077,7337.874934534656,0.9949091842869532,-2.9780187100508158e-05,0.00028458924338202707,0.1007751613423287
1.025,-2.253261327725394e-06,0.000533414975387555,-0.007231723436829114,-48.48076641656104,52.82931863296039,4.888945104781787,-1656433.680295645,5091872.719523891,3598683.2920591314,-194.47291071413687,-5260.90180988308,7338.062950289022,0.994911011777814,-2.9890097056245196e-05,0.0002859618224093156,0.10075711377200458
1.03,1.2817858713340399e-05,0.0005239343036788111,-0.007236809106010099,-48.471876927605834,52.79470551700729,4.891670777287399,-1656434.6518946122,5091846.41500821,3598719.9828438824,-194.16667618661177,-5260.904462358997,7338.250950192261,0.9949128328517739,-3.0035234913033605e-05,0.0002872874654718461,0.10073912641399692
1.035,-2.77814194806628e-05,0.0005645148115247035,-0.007254426933656899,-48.45731297580892,52.782713209341885,4.8951355855684024,-1656435.6219626851,5091820.110479428,3598756.674568342,-193.8605529535388,-5260.907050312893,7338.438833598475,0.9949146548873231,-3.0140502599268654e-05,0.000288593322581833,0.10072112636325598
1.04,-1.83189240066336e-05,0.0005288742211433916,-0.0072363421592833935,-48.452971894718736,52.75426075497533,4.885370796922769,-1656436.5905003843,5091793.805937717,3598793.367232174,-193.55452670239538,-5260.909634376082,7338.626699148545,0.9949164809984561,-3.035698331480294e-05,0.0002899898906113834,0.10070308248492615
1.045,4.944953742723666e-06,0.0005426441219772145,-0.0072137683924920456,-48.443784337067974,52.72269552587424,4.8903859117477335,-1656437.5575081117,5091767.501383111,3598830.060835008,-193.24856423398515,-5260.912207979896,7338.814434543488,0.9949183022548702,-3.0540942134286204e-05,0.00029130019364699745,0.10068508355131214
1.05,-8.77546581609405e-06,0.0005473332557612253,-0.007203870151714832,-48.42869819090223,52.711443480028514,4.882551739870624,-1656438.5229863017,5091741.196815802,3598866.7553762756,-192.94271182276367,-5260.914715655902,7339.002072446323,0.9949201174945408,-3.0670486419050664e-05,0.0002926506039401942,0.10066714071430892
1.055,3.1113087284986e-05,0.0005418829480815013,-0.007238507511523675,-48.42544586761953,52.68499917007251,4.87849061855808,-1656439.4869354386,5091714.892235845,3598903.4508556174,-192.63694287665848,-5260.9172666941495,7339.189664300209,0.9949219299136679,-3.083533035980636e-05,0.00029400922519207806,0.10064922247399859
1.06,-1.8698728340779086e-05,0.0005347429580037696,-0.007206879463377075,-48.40643603088087,52.661757531954436,4.879674970694613,-1656440.449355887,5091688.587643212,3598940.147272651,-192.33123647896792,-5260.919787098553,7339.377149129906,0.99492375072933,-3.089961333606029e-05,0.00029536432398050806,0.10063121801812752
1.065,-9.565011018877985e-07,0.0005475769835028444,-0.0072217360205513986,-48.40326768334815,52.6495559159121,4.875567347930371,-1656441.410248139,5091662.283038004,3598976.844626943,-192.0256643086472,-5260.922295824815,7339.564567724507,0.994925563263296,-3.108597407902449e-05,0.00029668913419187104,0.10061329223533712
1.07,-1.653687136352932e-05,0.0005638562990967548,-0.007215555178190991,-48.39464167397188,52.61172260637216,4.866618939583002,-1656442.3696126211,5091635.978420248,3599013.542918205,-191.72012861328747,-5260.924806644892,7339.751936919098,0.9949273792005779,-3.1231443526588326e-05,0.00029805032816145966,0.10059532945255552
1.075,1.773367616559162e-05,0.000539150706717701,-0.007195947242687451,-48.37328392909875,52.584163353094056,4.867390507257052,-1656443.3274496773,5091609.673790004,3599050.242145906,-191.4146937741286,-5260.927290948223,7339.939143634315,0.9949291932441539,-3.141975575856657e-05,0.0002994480960767938,0.10057738202087915
1.08,7.237706466262933e-06,0.0005243009036833226,-0.0071953426840951585,-48.36737546789034,52.56984846103181,4.872737371694247,-1656444.2837599388,5091583.369147376,3599086.9423094336,-191.10941088504782,-5260.929760086059,7340.12626730757,0.9949310020538628,-3.151659932141655e-05,0.0003007930317517128,0.10055948330392575
1.085,-4.64648764347586e-06,0.0005571248359891062,-0.007206531437223303,-48.352956075672196,52.53844174554945,4.873404822047949,-1656445.2385439477,5091557.064492489,3599123.643408506,-190.8041926902184,-5260.93219474968,7340.313361707852,0.9949328103981989,-3.163581611223131e-05,0.00030209839237963686,0.10054158606705066
1.09,1.0144541006910216e-05,0.0005281488385508444,-0.007201906899154361,-48.359340209705195,52.51414935296114,4.866691314262087,-1656446.1918021846,5091530.759825523,3599160.3454427887,-190.49910207404653,-5260.934591587496,7340.500351355998,0.9949346212048801,-3.179285170510254e-05,0.00030348240890292274,0.10052366097364315
1.095,-1.3723529892454946e-05,0.0005376212269426957,-0.007189096841100274,-48.33248225620368,52.48735890205637,4.855254648356195,-1656447.1435349986,5091504.455146661,3599197.0484117353,-190.19402346608194,-5260.936953404863,7340.687227313747,0.994936430547963,-3.190581157936701e-05,0.00030479806975806115,0.10050574734130621
1.1,1.327260421088424e-05,0.0005436991568011656,-0.007199560415510266,-48.325430553781956,52.467612771661436,4.861834556495263,-1656448.093742818,5091478.150455874,3599233.752314788,-189.8891043871621,-5260.939361164556,7340.8739937121845,0.9949382363394891,-3.208050978889233e-05,0.0003061312954007959,0.100487865556683
1.105,5.8821319358550614e-06,0.0005225826293441832,-0.007192435076714825,-48.32089013921517,52.43928048548645,4.850529978888854,-1656449.0424262453,5091451.845753172,3599270.457151555,-189.58426643882393,-5260.941719471486,7341.0607131279585,0.9949400444335129,-3.218959417641867e-05,0.0003074864199765175,0.10046995769169517
1.11,-2.123715919477529e-05,0.0005391051144430524,-0.007185497714732471,-48.295505990128675,52.41695656431579,4.85362139953568,-1656449.9895856385,5091425.541038689,3599307.1629215847,-189.27949084479366,-5260.9440739202355,7341.247298628263,0.9949418504296972,-3.2311751826588774e-05,0.00030878716452757747,0.10045206752460543
1.115,2.6252680239034113e-06,0.0005202882171574091,-0.007185967018568829,-48.291481671517595,52.39223548196001,4.848264658187235,-1656450.9352215624,5091399.236312443,3599343.869624411,-188.9748787635955,-5260.946424274432,7341.433832077537,0.9949436543456268,-3.2505508699565024e-05,0.00031012219634633104,0.10043419460017165
1.12,-6.147616529401003e-06,0.0005536013634486515,-0.007160678158717412,-48.278747150971505,52.368340742447266,4.85137368151947,-1656451.879334579,5091372.931574496,3599380.5772596477,-188.67032782790884,-5260.948754582309,7341.620262433201,0.9949454580730878,-3.263518684969538e-05,0.00031141641515409867,0.10041632045885103
1.125,-6.1101850924382295e-06,0.0005301430155150816,-0.007187519925813393,-48.27027183700473,52.34224329712791,4.84109633142144,-1656452.8219251148,5091346.626824982,3599417.2858268633,-188.36588648857153,-5260.951051201422,7341.806623924858,0.994947255103588,-3.279502961388818e-05,0.0003127912954814394,0.10039850919175768
1.1300000000000001,9.793626054766384e-06,0.0005246340502218178,-0.007215683401654034,-48.25516033429604,52.316313274217784,4.839940793879512,-1656453.762993637,5091320.322063971,3599453.99532559,-188.06152239763207,-5260.953353053603,7341.99286663312,0.9949490585677429,-3.294891229348502e-05,0.0003141078333548371,0.1003806311287222
1.135,-1.4133159427885679e-06,0.0005298262733685087,-0.007163416811319073,-48.2439105503653,52.289206034226595,4.838251982277954,-1656454.7025406347,5091294.017291494,3599490.705755312,-187.75727673776572,-5260.955638207638,7342.179022241506,0.9949508687809642,-3.306187588991103e-05,0.0003154146570429025,0.1003626829678798
1.1400000000000001,-7.411793631329361e-06,0.0005333348277030334,-0.0071857405116516546,-48.23686683485991,52.26863971876781,4.845407455851094,-1656455.6405666608,5091267.712507652,3599527.417115571,-187.4531336332631,-5260.9578981665245,7342.3650813206905,0.9949526655519648,-3.3203976916784264e-05,0.0003167315880690095,0.10034486478957091
1.145,-3.91051123701033e-07,0.0005572405830747537,-0.007176950960980603,-48.225451531771505,52.248740155255945,4.839114294655468,-1656456.5770721792,5091241.407712646,3599564.1294060033,-187.14907377305437,-5260.96010443308,7342.551091625878,0.9949544675980105,-3.3361896276406426e-05,0.000318055739462206,0.10032699105569778
1.1500000000000001,-3.7968967879531047e-06,0.0005267830006092434,-0.007164066809790827,-48.20890049846439,52.2236707274191,4.837923340042407,-1656457.5120576094,5091215.102906584,3599600.842626287,-186.8450983168494,-5260.962320513871,7342.737021887726,0.9949562670985133,-3.350834131975256e-05,0.0003194411152555792,0.10030913914473084
1.155,-1.879049108476549e-05,0.0005219515096394751,-0.007183159798432042,-48.1981491671404,52.193310632854185,4.823386504699121,-1656458.4455234706,5091188.79808947,3599637.556776016,-186.54124614080146,-5260.964524895926,7342.922869621516,0.9949580630704999,-3.365560979697663e-05,0.00032074987802502985,0.10029131925453386
1.16,1.0439002074593744e-06,0.0005193948607862513,-0.007174075762111426,-48.19850974817746,52.17059186790022,4.837374293196315,-1656459.377470295,5091162.493261293,3599674.271854618,-186.2374835625037,-5260.966746158659,7343.108571182902,0.9949598635105323,-3.383897717583911e-05,0.000322042861938678,0.10027345185252973
1.165,-2.0065462122481814e-05,0.0005529406190765728,-0.007166981024528468,-48.17876266095631,52.14292381674884,4.823963648720375,-1656460.3078984628,5091136.18842226,3599710.9878616165,-185.933783628221,-5260.9688667294095,7343.2942282129125,0.9949616613549397,-3.3972360261982185e-05,0.00032333445926625875,0.100255606997936
1.17,-2.353127972786509e-05,0.0005419152813125958,-0.007159501565659134,-48.16137023780029,52.122175342524585,4.827611229938293,-1656461.2368084476,5091109.883572533,3599747.7047965885,-185.63021025402685,-5260.971024343862,7343.479760578565,0.9949634570706952,-3.416665299364169e-05,0.00032470420812057724,0.10023777977263852
1.175,-1.7994168465385316e-05,0.0005401689490729,-0.00714888071075341,-48.15856357873402,52.087079600067824,4.816400851162544,-1656462.164200879,5091083.578712065,3599784.422659095,-185.32676234859065,-5260.973162831757,7343.66524214086,0.994965250599842,-3.4366797658971293e-05,0.0003260456644739283,0.10021997112323248
1.18,-1.3561075084808545e-05,0.0005150525329461929,-0.007156034091271506,-48.1503143975563,52.05751173757911,4.817920534767353,-1656463.0900762377,5091057.273840963,3599821.141448603,-185.0233811334304,-5260.975277927562,7343.850561015416,0.9949670411497306,-3.4552723029380674e-05,0.0003273841651079861,0.1002021888556739
1.185,-1.078425294750659e-05,0.0005366346652414946,-0.007140885964876992,-48.12795887701646,52.02704110884918,4.811441248672672,-1656464.0144349341,5091030.96895941,3599857.861164455,-184.72009743234725,-5260.9773432823085,7344.035779730849,0.99496883319266,-3.472133548924944e-05,0.0003286613005174345,0.10018438876099926
1.19,-4.8467983795684684e-06,0.0005532888897634961,-0.007158731179877352,-48.11047689563832,52.01013604870951,4.80840533593631,-1656464.9372775925,5091004.664067509,3599894.581806114,-184.41696587543794,-5260.979417238094,7344.220883871511,0.9949706211045904,-3.488843384459089e-05,0.00032999281649429224,0.10016662630978367
1.195,1.265940563450845e-05,0.0005214752352170773,-0.0071544586453656375,-48.1016244284733,51.98123786620925,4.811026082241266,-1656465.8586048689,5090978.359165197,3599931.303373159,-184.11394466556348,-5260.981507374314,7344.405934142294,0.9949724131522969,-3.5044948422266224e-05,0.00033136724380589735,0.10014881943136647
1.2,1.6911318768548718e-06,0.0005396092168926677,-0.007143291270637737,-48.087469386840006,51.95654432701273,4.809683439998189,-1656466.7784172902,5090952.054252563,3599968.025865221,-183.81102388531204,-5260.983546171089,7344.590890563021,0.9949742038378749,-3.514994872422211e-05,0.00033266692017773605,0.10013102313662985
1.205,-5.709103148524688e-06,0.0005215455620011217,-0.0071203390456442105,-48.073398350785205,51.93617291023556,4.8160475847294055,-1656467.6967153866,5090925.749329773,3600004.7492818558,-183.5082146766564,-5260.985569761646,7344.775763478466,0.9949759913923447,-3.528676203631878e-05,0.0003340089588728263,0.10011325459538642
1.21,4.84185561578917e-06,0.0005472018285939418,-0.00716047461722982,-48.066330771306184,51.90106111420874,4.804419008931961,-1656468.6134997203,5090899.444396955,3600041.4736227444,-183.20551879306714,-5260.987557512278,7344.960591914867,0.994977772898643,-3.54374427837603e-05,0.0003353042150745594,0.10009554312219644
1.215,2.8978683383114324e-06,0.0005493495136438611,-0.007142060855008644,-48.0680361683839,51.879445195259024,4.797387502623762,-1656469.5287707874,5090873.139454231,3600078.198887374,-182.9029081189644,-5260.989532118391,7345.145259858391,0.994979564109011,-3.556833243512703e-05,0.0003366659264104442,0.10007773177080959
1.22,4.87685767706172e-06,0.0005497955495457231,-0.007155311635534239,-48.03859577123078,51.8486768207952,4.785681882165655,-1656470.4425288704,5090846.834501679,3600114.925075093,-182.60032501769174,-5260.991488529105,7345.329827829131,0.9949813503904855,-3.570457948449728e-05,0.00033803249515769945,0.10005996619198494
1.225,1.919836836564759e-05,0.0005386648876097757,-0.007122464269001035,-48.02210720005686,51.83072669541747,4.79567622750346,-1656471.354774482,5090820.529539239,3600151.6521853404,-182.29791963896974,-5260.993487840969,7345.514271201858,0.9949831396667674,-3.583602665251018e-05,0.0003394006671510916,0.10004216761860138
1.23,3.3697173498108408e-06,0.0005599066143350199,-0.0071402668208893644,-48.01920091683262,51.80070174641728,4.786601384160137,-1656472.265508378,5090794.2245669,3600188.3802177487,-181.99563874396523,-5260.995447497411,7345.698692074501,0.9949849204197022,-3.592903794496957e-05,0.00034074473681357763,0.10002445070845163
1.235,-6.911958931260832e-07,0.0005225536887016282,-0.007123600875768448,-48.00292409845063,51.76843371659056,4.79019517195856,-1656473.174731021,5090767.9195848135,3600225.109171921,-181.69341852688254,-5260.997387058304,7345.882976843984,0.9949867052867094,-3.6066749294041666e-05,0.0003421376846321711,0.10000668949471919
1.24,-1.2864949475463732e-07,0.0005157694502017564,-0.007117999216058036,-47.992040424697464,51.746772127747974,4.791252274377689,-1656474.0824429158,5090741.614593149,3600261.8390472704,-181.39133928135277,-5260.999278811886,7346.067162853822,0.9949884857004017,-3.620520890709176e-05,0.0003434367043868461,0.09998896971183702
1.245,-3.6115116831030316e-06,0.0005565153522492813,-0.007110623520587629,-47.98165274628371,51.72194357549083,4.795210490801639,-1656474.9886446502,5090715.309592087,3600298.569843381,-181.0893544954593,-5261.001146112562,7346.251281603493,0.9949902644027099,-3.6340568508556835e-05,0.00034471898956223477,0.09997126383119706
1.25,5.532376212477094e-06,0.0005341135473303713,-0.00712218286613105,-47.96622494025817,51.69108371530632,4.788205094893263,-1656475.8933367147,5090689.004581798,3600335.301559905,-180.78747133428075,-5261.002969227731,7346.43532791703,0.9949920409096537,-3.6494768825418e-05,0.00034610175927232635,0.0999535762649156
1.2550000000000001,-2.665063701098405e-06,0.0005468438014845184,-0.007099427430345417,-47.952398171547095,51.663471245311605,4.783302841197917,-1656476.796519666,5090662.699562406,3600372.034196352,-180.48570915338533,-5261.004787765268,7346.619250791004,0.9949938200085244,-3.6620636041878296e-05,0.00034743108868435005,0.099935859907301
1.26,-5.786290051086922e-06,0.0005372846964213126,-0.007125702724020931,-47.937759075588815,51.640521846833664,4.771398405457306,-1656477.6981940828,5090636.394533942,3600408.7677521487,-180.18405764260052,-5261.00659764246,7346.803067979604,0.9949955930941197,-3.677005500918047e-05,0.0003487900383342486,0.0999182001276715
1.2650000000000001,6.01335089513359e-06,0.0005195885262996365,-0.0071221397187552415,-47.925196736198785,51.59931889358399,4.778502948548485,-1656478.5983604847,5090610.089496351,3600445.5022267676,-179.88250307725124,-5261.008438802111,7346.986779482678,0.9949973724347884,-3.6924873070940936e-05,0.0003501244276210371,0.09990047496036318
1.27,-5.95153323964755e-06,0.0005258205844090212,-0.007082270033843397,-47.91191755586977,51.58060996501355,4.774760693704138,-1656479.4970194756,5090583.7844497785,3600482.2376196226,-179.58109326772762,-5261.0101901559,7347.170362615224,0.9949991505848316,-3.704591683332635e-05,0.0003514177449924759,0.0998827586154505
1.2750000000000001,1.2360320009746625e-06,0.0005202889256276463,-0.007109850057039065,-47.89571391931304,51.55366163033953,4.7764289123683215,-1656480.3941716517,5090557.479394434,3600518.9739302266,-179.27977717773592,-5261.011947620453,7347.353878998493,0.9950009184571728,-3.7198244368458234e-05,0.0003527235804622757,0.09986514142456913
1.28,-1.9588802070522017e-06,0.0005436541929246599,-0.007096111901793567,-47.885149949896665,51.52851904142058,4.772364292592008,-1656481.2898175686,5090531.174330373,3600555.7111582058,-178.97858960771765,-5261.013676872806,7347.53731263817,0.9950026929059251,-3.733133607735043e-05,0.0003540174477097757,0.09984745559089339
1.285,7.374263213010143e-07,0.0005426288906242771,-0.0071057385134789056,-47.87031733154148,51.496525914789636,4.762546205901637,-1656482.1839577793,5090504.869257698,3600592.449303113,-178.67749466487214,-5261.015393141943,7347.720650230727,0.995004463588888,-3.747819538740019e-05,0.000355368639877237,0.09982980389995691
1.29,-2.287749755814348e-05,0.0005192316334275383,-0.0070746904051023855,-47.858641009353775,51.467992672909155,4.76281664909882,-1656483.076592807,5090478.564176436,3600629.188364367,-178.37651638304976,-5261.017112044188,7347.903851355106,0.9950062363601664,-3.7618100256199824e-05,0.0003567179535085477,0.09981212822877221
1.295,6.563805373373501e-06,0.0005318693704679886,-0.007107968397861977,-47.84362264411503,51.43853862081974,4.756631743075118,-1656483.9677232162,5090452.259086667,3600665.9283413845,-178.0756473534996,-5261.0187953234445,7348.086955693983,0.9950080010882624,-3.781088159079693e-05,0.0003580031762654892,0.0997945297819645
1.3,-6.007999694804579e-06,0.0005181320180323006,-0.007087434729812564,-47.83621514930813,51.40504248456928,4.753696771881346,-1656484.8573495743,5090425.953988495,3600702.669233634,-177.77489588680407,-5261.020473144062,7348.269944125082,0.9950097737957888,-3.7933609810083625e-05,0.0003593271775897525,0.09977684849640196
1.305,-3.1549061588744113e-06,0.0005189109170342077,-0.0070864579641446565,-47.81335256570509,51.385616211458995,4.743471111444454,-1656485.7454724123,5090399.648882044,3600739.411040502,-177.47423927034674,-5261.022107825379,7348.452803126607,0.9950115410774991,-3.808416556961606e-05,0.00036061387280997466,0.09975921826984907
1.31,-2.1050145690412544e-05,0.000517770333004296,-0.0070886534274924905,-47.798734447896045,51.35425529270869,4.758015539923626,-1656486.632092291,5090373.343767294,3600776.1537614656,-177.17371227514488,-5261.023792056615,7348.635582111722,0.9950133078011641,-3.82278175398925e-05,0.0003619032170990899,0.09974159043890005
1.315,2.934315702766943e-06,0.0005254687815407725,-0.007072448583955989,-47.79485895894386,51.32226410274123,4.753173542478929,-1656487.5172098996,5090347.038644354,3600812.8973961584,-176.87333107620734,-5261.025383908197,7348.818295091332,0.9950150747575327,-3.841570207904018e-05,0.00036318526157429643,0.09972395713148038
1.32,-4.432493688249388e-06,0.0005453999833349041,-0.007079466222425708,-47.77459326336368,51.30608734831476,4.745589948205272,-1656488.4008257864,5090320.733513553,3600849.641944087,-176.57302367671898,-5261.026936376773,7349.0008764581535,0.9950168373557162,-3.854582894042868e-05,0.00036449243723575255,0.09970636408028623
1.325,-4.99899112918673e-06,0.0005353789896670606,-0.007090366583311932,-47.764322344697874,51.27358823816071,4.72904590158489,-1656489.282940425,5090294.4283748865,3600886.387404769,-176.27283179835348,-5261.028530095553,7349.18339624019,0.9950186013711293,-3.869925560199721e-05,0.00036584735551522504,0.09968875354583306
1.33,-8.944422373870862e-06,0.0005235588210570221,-0.007070177188415443,-47.73924457576853,51.24149998355427,4.731493210527361,-1656490.1635543252,5090268.123228205,3600923.133777647,-175.972728301536,-5261.030142393218,7349.365754876041,0.9950203677982825,-3.885160395882777e-05,0.0003671772037533476,0.09967111586625603
1.335,-1.2700285361266408e-05,0.0005236452521292326,-0.007063847529079669,-47.73877261849929,51.21630540958026,4.74468055242102,-1656491.0426681542,5090241.818073525,3600959.8810620825,-175.67280329496063,-5261.031729664668,7349.548019289822,0.9950221288916555,-3.901080290833257e-05,0.0003684766674516317,0.09965352838219359
1.34,1.2361101930963264e-05,0.0005247619337638784,-0.007084614907129429,-47.720650525084075,51.18431999043651,4.733609168144087,-1656491.920282532,5090215.512911163,3600996.6292576985,-175.3729477607618,-5261.03321511493,7349.73022730463,0.9950238880953567,-3.917936046463374e-05,0.00036977541094115613,0.09963595661568345
1.345,9.677964237537569e-06,0.0005203279397676953,-0.007063230882180807,-47.71590335737074,51.15434656798553,4.727594587886174,-1656492.796397956,5090189.207741339,3601033.378364012,-175.0732219093328,-5261.034714804301,7349.912297946953,0.9950256521604905,-3.9285873663319384e-05,0.00037108317263075244,0.09961833313446773
1.35,1.2382346232389192e-05,0.0005304232934357184,-0.0070659146868449225,-47.69159199873989,51.13061569861557,4.728915304733641,-1656493.6710149324,5090162.902564086,3601070.1283803633,-174.77356861578116,-5261.036186074774,7350.094242603212,0.9950274105909757,-3.939793722088252e-05,0.00037237923823520234,0.09960076281898399
1.355,-1.0834362606675019e-06,0.0005369815658881336,-0.007046529686667934,-47.68076878318865,51.0953667857943,4.736977876446098,-1656494.5441340387,5090136.597379485,3601106.8793062777,-174.47407392144632,-5261.0376543550965,7350.276123150396,0.9950291693685088,-3.9505789691353984e-05,0.00037370108973883463,0.09958318579260031
1.36,-3.160352885334839e-06,0.0005172677764533784,-0.007055088211773914,-47.654918177106374,51.067278990253016,4.714694149419009,-1656495.41575599,5090110.292187752,3601143.631141337,-174.17470655118868,-5261.039038992733,7350.457900596348,0.99503092300112,-3.9648753889053713e-05,0.00037503590480723604,0.09956565696858423
1.365,-4.2649956767318704e-07,0.000526949873538613,-0.007063149538194117,-47.6491327687346,51.04093960188923,4.725389726975927,-1656496.2858814618,5090083.986988887,3601180.383884917,-173.87548214895648,-5261.040506749352,7350.639531448824,0.9950326784714499,-3.9791985548423666e-05,0.0003763211623609598,0.09954810682736755
1.37,7.945698628022569e-06,0.0005162525019016935,-0.007053275214915477,-47.634615903028944,51.01022300301188,4.710710479391716,-1656497.1545110417,5090057.681782894,3601217.137536492,-173.57634986372892,-5261.041890686591,7350.821098592272,0.995034435627574,-3.993083368206425e-05,0.00037763118437719246,0.09953053659823423
1.375,3.675936179727423e-06,0.0005195925399718796,-0.00704583641836348,-47.62085882573,50.982530460876156,4.710177765114091,-1656498.0216452267,5090031.376569921,3601253.8920955397,-173.27732413450937,-5261.043298571941,7351.0025204432995,0.9950361900261302,-4.00461841294621e-05,0.0003789166798515016,0.09951299089433441
1.3800000000000001,-1.1967184492851944e-05,0.0005097287252723591,-0.007039125470192242,-47.60751228194121,50.95280766932613,4.707479982879164,-1656498.8872845727,5090005.071349974,3601290.6475614617,-172.97841429438714,-5261.044680044742,7351.18384820886,0.9950379422597244,-4.0172979880983226e-05,0.0003802094223570326,0.0994954636677486
1.385,1.5758272291947447e-06,0.0005151180738962697,-0.0070135755149959835,-47.58493620477719,50.92288390583188,4.710650012114645,-1656499.751429657,5089978.766123178,3601327.40393375,-172.67961933843975,-5261.046038114758,7351.365067233846,0.9950396925217628,-4.033622947553756e-05,0.00038147373719451085,0.09947795312013652
1.3900000000000001,-5.762155300166149e-06,0.0005032534161884529,-0.007001727956006854,-47.57459115390172,50.887352500234286,4.70333345126197,-1656500.6140811767,5089952.460889664,3601364.16121192,-172.3809885730126,-5261.04736807284,7351.54620063555,0.9950414361172203,-4.046710540886396e-05,0.0003827548291073338,0.09946050608625581
1.395,-2.4832133319701445e-05,0.0005004741776808618,-0.007017276690821358,-47.55723970905572,50.8652424229234,4.702833434029667,-1656501.4752398073,5089926.15564956,3601400.919395387,-172.08246363170204,-5261.048673289612,7351.727186266644,0.9950431764703669,-4.061327382246343e-05,0.0003840045829369021,0.09944308850193961
1.4000000000000001,-3.4597208222507235e-06,0.0005177079544043362,-0.007039332601084925,-47.537539015600714,50.82790597256816,4.695487768874099,-1656502.334906118,5089899.850402947,3601437.6784836114,-171.7840607001022,-5261.049972101184,7351.908103424333,0.9950449203826524,-4.0806204839097306e-05,0.0003852426804696701,0.09942563222636287
1.405,-1.1500830560613224e-06,0.0005078418883207627,-0.007021450582860412,-47.52058233689354,50.800201573825596,4.68505704096445,-1656503.1930807917,5089873.545149863,3601474.438476052,-171.48580875280518,-5261.051261285585,7352.088873015532,0.9950466694540103,-4.09502745068999e-05,0.0003865289590018596,0.09940812103103322
1.41,-4.999362620792817e-06,0.0005282662921545107,-0.007025688494786029,-47.51297946158876,50.76948885869233,4.692783427977108,-1656504.0497644993,5089847.239890286,3601511.1993720434,-171.1876743109385,-5261.052569532228,7352.269523348191,0.9950484137820731,-4.108612947104658e-05,0.0003877912702460783,0.0993906542872164
1.415,-1.380469474543135e-05,0.0005360434661899958,-0.007002227312986098,-47.49702331668564,50.74321157347357,4.683514203821634,-1656504.9049577953,5089820.934624364,3601547.961171065,-170.88964405752614,-5261.053799232537,7352.450085295187,0.9950501588345027,-4.123663906698009e-05,0.0003891034326553399,0.09937317697190406
1.42,1.3964951145175168e-05,0.0005320348961277042,-0.007007504847600958,-47.48259267475836,50.71166012674965,4.689872589454201,-1656505.7586612196,5089794.629352255,3601584.7238726187,-170.5917257387669,-5261.0550446224615,7352.630536190453,0.9950518977422154,-4.141096230214743e-05,0.00039043275652400313,0.09935575799625655
1.425,1.031978484523696e-05,0.0005370733220002163,-0.0070167466152437075,-47.45494733390922,50.685523344172644,4.6849340948382725,-1656506.610875389,5089768.324074071,3601621.4874762017,-170.29394198167768,-5261.056228835798,7352.81089702676,0.9950536376606659,-4.151521439244996e-05,0.0003917590055732867,0.09933832583471924
1.43,1.1649584382906732e-05,0.0005196851195054829,-0.007013967211963441,-47.45358253515178,50.65105443648766,4.680030376610831,-1656507.4616010638,5089742.018789909,3601658.251981367,-169.99632793311045,-5261.05743582649,7352.991169026899,0.9950553795613878,-4.162979463322789e-05,0.0003930968820404798,0.09932087065538749
1.435,-4.0130535442252995e-06,0.0005163307197016218,-0.007005043104288685,-47.43110719595811,50.626651801456326,4.676177959007446,-1656508.310838835,5089715.7134998385,3601695.0173875317,-169.69878053790018,-5261.058592585002,7353.171296958923,0.9950571204813924,-4.1736746540699676e-05,0.00039439183330637595,0.09930342235998492
1.44,-1.0115736179204478e-05,0.0005191392574102841,-0.00699628767422331,-47.416179389532594,50.592613760708616,4.673086330503565,-1656509.158589231,5089689.408203954,3601731.783694129,-169.40137792230902,-5261.059761274439,7353.3513418962975,0.9950588588803504,-4.188181992633975e-05,0.00039567455244925994,0.09928599624970667
1.445,3.1712592015900183e-06,0.0005208330690516372,-0.007001161974190046,-47.39366781970113,50.558483811201626,4.6760208250399,-1656510.0048529368,5089663.102902297,3601768.5509006353,-169.10410437286197,-5261.060901303984,7353.531260617958,0.9950605947961999,-4.204276308053606e-05,0.0003969627442605214,0.0992685918950132
1.45,-2.1580833768825913e-05,0.000515497374796352,-0.006996786591132497,-47.38644851947433,50.52506845251925,4.670916670016982,-1656510.8496307023,5089636.797595033,3601805.319006476,-168.80700182836523,-5261.062004197205,7353.711075778099,0.995062331615119,-4.217107800100233e-05,0.00039825844650361687,0.09925117537083832
1.455,3.116201748505132e-06,0.0005303527949564131,-0.006987577891458375,-47.36918486249787,50.50076531889951,4.6636765033263305,-1656511.692923182,5089610.492282343,3601842.088011054,-168.50999002706376,-5261.0630720154095,7353.890755318813,0.9950640670447664,-4.235963930569412e-05,0.0003995347340286833,0.09923376972576396
1.46,4.77349314155128e-06,0.0005015351367444751,-0.007000177009619537,-47.344732875819965,50.46545997503249,4.668597496696533,-1656512.5347308947,5089584.186964276,3601878.8579137884,-168.21309502491158,-5261.064154689358,7354.070338466088,0.9950657998718954,-4.249043896622689e-05,0.0004008541045930168,0.09921638693207117
1.465,-1.2583428348978911e-05,0.0004966912357791943,-0.006977800861407198,-47.34151727000805,50.434675506200215,4.662921460048362,-1656513.3750545932,5089557.8816409055,3601915.6287141857,-167.9163843717802,-5261.0651936025215,7354.249820397161,0.9950675355473139,-4.2609980494939144e-05,0.0004021021961066466,0.0991989727669027
1.47,-2.2647785827050867e-05,0.0005176815811105066,-0.006987148302696298,-47.310420327777884,50.40720195057585,4.669439374593832,-1656514.2138949067,5089531.576312427,3601952.400411668,-167.61974101873273,-5261.066197566558,7354.429172502902,0.9950692653711933,-4.277147651455767e-05,0.000403333935387067,0.09918161425370618
1.475,1.3573330628563307e-05,0.0005352902509775169,-0.0069805376667993165,-47.30236142810947,50.36940573838888,4.6517093976865755,-1656515.0512525088,5089505.270978976,3601989.1730057616,-167.32329987567078,-5261.067183099283,7354.608465046051,0.9950709971857484,-4.2963223419269544e-05,0.0004046153951651404,0.09916423246465242
1.48,-1.342200653498279e-06,0.0005141478949437702,-0.0069666556051736755,-47.28994608989259,50.340741781565015,4.650572830595175,-1656515.8871281205,5089478.96564058,3602025.946495848,-167.02694478669244,-5261.068174925017,7354.787569480123,0.9950727270424736,-4.306922254330071e-05,0.0004059496398189424,0.09914686705179733
1.485,1.5566497118768554e-05,0.0005148800313265538,-0.007004221500043534,-47.26409884895663,50.316794959938846,4.651097076291741,-1656516.7215222332,5089452.6602973,3602062.7208812037,-166.73070032989278,-5261.069137508989,7354.966572896422,0.995074453173982,-4.320707216574901e-05,0.0004072275933181948,0.09912953616020254
1.49,5.382950071837283e-07,0.0004994730811610192,-0.006985010223979898,-47.24178671632204,50.286845790329174,4.6430229109999726,-1656517.5544355353,5089426.3549492,3602099.496161411,-166.43462050040554,-5261.070102614726,7355.145510016992,0.9950761883111714,-4.3303077927459436e-05,0.0004085115543387572,0.0991121117687621
1.495,1.3606529751561242e-05,0.0005060506310025339,-0.006956393847599115,-47.24227403569448,50.24362254010712,4.6351081055485315,-1656518.3858688094,5089400.049596235,3602136.27233601,-166.13868912179166,-5261.071083101105,7355.324329566076,0.9950779183964185,-4.343263203248638e-05,0.00040975346589829196,0.0990947351555801
1.5,1.8036445296079651e-06,0.0005017506931758215,-0.0069492644755937616,-47.21781870342026,50.219543194742215,4.637759010251099,-1656519.2158226015,5089373.744238524,3602173.0494042328,-165.84282767944254,-5261.072001216288,7355.502959410237,0.995079641083245,-4.3531276532008725e-05,0.00041101498085960515,0.0990774296868566
1.5050000000000001,3.3830103122567355e-06,0.0005183709923885395,-0.0069596242013852715,-47.20363268864221,50.188737883282066,4.630458146836157,-1656520.0442974896,5089347.438876245,3602209.827365449,-165.5471275592923,-5261.072910284861,7355.681527200721,0.9950813617050759,-4.3658210652588933e-05,0.0004122628760216646,0.09906014193636911
1.51,1.5051151210764176e-05,0.000500444435775196,-0.006947216976592979,-47.18233342608369,50.15493130278609,4.629002847713818,-1656520.871294163,5089321.133509437,3602246.6062191906,-165.2515418492664,-5261.073813066395,7355.859969377105,0.9950830845731305,-4.378534246659561e-05,0.00041355250743314284,0.09904282838040993
1.5150000000000001,7.340788032452822e-06,0.0005066144496100681,-0.006951355970173415,-47.17293933097505,50.12129238810926,4.624971488836658,-1656521.696813306,5089294.828138169,3602283.3859648537,-164.9561153640892,-5261.074694130504,7356.038295904306,0.9950848040865623,-4.387899577343862e-05,0.00041480043315818266,0.09902554564980796
1.52,9.166666834012489e-06,0.0004939550982644981,-0.006961082638091961,-47.14527367377316,50.09749688742023,4.634835825219559,-1656522.520855572,5089268.5227625845,3602320.16660182,-164.66079101343422,-5261.075539685398,7356.216490533501,0.9950865243154924,-4.399336199465656e-05,0.00041606179871354643,0.0990082525998551
1.5250000000000001,-8.525984040066396e-07,0.0005187449248057683,-0.006939142602413551,-47.138086421615036,50.05372165636261,4.625494628595035,-1656523.3434216774,5089242.217382848,3602356.9481296637,-164.36565113379024,-5261.076354951234,7356.394647009576,0.9950882466628393,-4.410006260062223e-05,0.0004172921221405062,0.09899093532210684
1.53,7.98930630584966e-06,0.0004927905349633729,-0.006958111882569087,-47.11693269654441,50.018488360435164,4.616886640066248,-1656524.164512342,5089215.911999141,3602393.7305478156,-164.07061472844305,-5261.07712779889,7356.5726137433185,0.9950899632515444,-4.423780035767642e-05,0.0004185816384811824,0.09897367260271267
1.5350000000000001,5.864983256335534e-07,0.0005175842332241828,-0.006921174800987404,-47.10215968873099,49.9868630213526,4.610498840025788,-1656524.9841282044,5089189.606611563,3602430.513855447,-163.77573020234345,-5261.07790348508,7356.750438850514,0.9950916842601534,-4.434713972197594e-05,0.0004198087730043499,0.09895636265655977
1.54,1.5868393971252155e-05,0.000513285206078764,-0.006931189102871338,-47.086739796074276,49.96335962687618,4.611432678649235,-1656525.802269943,5089163.301220133,3602467.298051889,-163.48096531506962,-5261.07866856648,7356.928138010391,0.9950933958029172,-4.448099022374839e-05,0.000421095760115641,0.09893914457494098
1.545,-6.337465194988362e-06,0.0005022618477946374,-0.006914547772596174,-47.061892752349685,49.935993647605116,4.607458575922731,-1656526.618938151,5089136.995824926,3602504.083136647,-163.18631786658725,-5261.079414156363,7357.105765196452,0.9950951095289152,-4.4575770615817915e-05,0.00042237583109676753,0.09892190153496946
1.55,1.2511458543763082e-05,0.0004994240025493903,-0.006930498243601913,-47.038187094683096,49.899609918830286,4.604815962869713,-1656527.4341335227,5089110.690425966,3602540.869109307,-162.8918307828513,-5261.080169940053,7357.283298667782,0.9950968188489245,-4.472304964799814e-05,0.0004236229889658536,0.09890469988914988
1.555,-9.300381547306625e-06,0.0005201905545950636,-0.00693735806114378,-47.02907824254975,49.86619424921131,4.597214681572879,-1656528.2478568915,5089084.385023272,3602577.6559693147,-162.59751669873816,-5261.08090758057,7357.460704521434,0.9950985318183873,-4.482275260838727e-05,0.0004248677457149551,0.09888745851325022
1.56,8.978573996636393e-06,0.0005341379462107921,-0.006913174015331718,-47.00817466467626,49.832547684898095,4.596450761150331,-1656529.0601089292,5089058.079616943,3602614.443715999,-162.30329840379514,-5261.081623644341,7357.637969097635,0.995100246158582,-4.4981859045529896e-05,0.00042615877118705177,0.09887020006282943
1.565,2.7684953256399768e-05,0.0004883139577138744,-0.006914133062136365,-46.99414420371848,49.801537204002656,4.597855330433658,-1656529.8708902705,5089031.7742070975,3602651.232348722,-162.0092380628267,-5261.082314740951,7357.8151201760875,0.9951019542082619,-4.509891367415511e-05,0.0004274890149923164,0.09885300172543277
1.57,1.4024693784207598e-05,0.0005080149303285084,-0.006914734671256471,-46.972624163777965,49.76733267998903,4.59291519098148,-1656530.6802016227,5089005.4687939,3602688.0218669446,-161.71530288129307,-5261.0829643015895,7357.992168930396,0.9951036622471263,-4.515810783089644e-05,0.0004287098826641391,0.0988358009576439
1.575,7.328485847318577e-06,0.0005406154231192183,-0.00689969742144081,-46.9667960263745,49.73807592856999,4.588352800041531,-1656531.48804369,5088979.163377476,3602724.8122700937,-161.4215240202856,-5261.083605275628,7358.1690906992635,0.9951053701130922,-4.5256153957804135e-05,0.00042997638610756215,0.09881859867592628
1.58,9.687439819190327e-06,0.0005260739826014514,-0.006878296696502907,-46.94886050839075,49.7052435147544,4.58681968135639,-1656532.2944170567,5088952.857957924,3602761.6035575555,-161.12782266377846,-5261.084215528835,7358.3458938905915,0.9951070739299187,-4.537889632571886e-05,0.0004313223391622474,0.09880143377720206
1.585,-8.385025892728249e-06,0.0005162831370012636,-0.006912350432222954,-46.91975858107755,49.66923072922363,4.5810745205305565,-1656533.099322272,5088926.552535387,3602798.395728746,-160.8342634480408,-5261.084799559409,7358.522582280225,0.9951087721797036,-4.549215528616823e-05,0.0004326327014603602,0.09878432208813406
1.59,-2.6637001392030902e-05,0.0004939748316268622,-0.00691212768091867,-46.912261562907005,49.63172617537212,4.5801510441791145,-1656533.9027601725,5088900.247109914,3602835.188783052,-160.54089675499563,-5261.085389412194,7358.699140194924,0.9951104785505631,-4.564799328263045e-05,0.00043391423917469966,0.09876712567227605
1.595,-1.1949977593088481e-06,0.00048174426610376466,-0.006901556580478299,-46.885471719176856,49.606065557931665,4.58618244384193,-1656534.7047315005,5088873.941681644,3602871.9827197962,-160.24763440406176,-5261.08591860732,7358.875557516266,0.995112184589789,-4.584372953603229e-05,0.00043513577197519407,0.09874992980326708
1.6,5.025714702848089e-07,0.0004823126265956426,-0.006893578256367825,-46.87263418681483,49.56828984289201,4.5655821122729785,-1656535.5052369635,5088847.636250782,3602908.777538484,-159.9545508582092,-5261.08642643153,7359.051917471931,0.9951138877373187,-4.597314073777461e-05,0.0004363331598850946,0.09873276017697047
1.605,-8.311873507731762e-07,0.0005143680593180759,-0.006903068385249071,-46.85547169921158,49.52972750686985,4.569047200232815,-1656536.3042772678,5088821.330817312,3602945.5732384897,-159.6615708065655,-5261.086961408238,7359.228084995835,0.9951155886177735,-4.6098460325473524e-05,0.0004375323815543739,0.09871561036760772
1.61,-4.474956237651902e-06,0.000501692915605101,-0.0068699244002397766,-46.820547670375944,49.49359567411897,4.568778236818971,-1656537.1018530596,5088795.025381319,3602982.369819022,-159.3687459830445,-5261.087435704198,7359.404127692241,0.9951172915075596,-4.623501931949032e-05,0.00043881101999410294,0.09869843691705843
1.615,1.3571221914176907e-05,0.0005106422972916366,-0.006866750965683854,-46.81291161059012,49.47290796047904,4.560645979675967,-1656537.8979652922,5088768.719942966,3603019.1672794893,-159.0761470510072,-5261.087905856038,7359.58005943956,0.9951189859361217,-4.63774793412484e-05,0.00044005722991165736,0.09868134589793952
1.62,-1.647142392391314e-05,0.0004959012791803011,-0.0068738907496372886,-46.79283578220185,49.43403175676229,4.558649675277651,-1656538.6926146944,5088742.4145022435,3603055.9656193852,-158.78361378964257,-5261.088382713597,7359.755898808826,0.9951206792790406,-4.6477248464344655e-05,0.0004413301563686424,0.09866426272353891
1.625,-6.831557699935978e-06,0.00047981641485946686,-0.006862747628770196,-46.77368809932886,49.40186690500373,4.554593786861159,-1656539.4858018346,5088716.109059223,3603092.7648381297,-158.4912423568463,-5261.088825544154,7359.931599138264,0.9951223741006907,-4.6648129567281754e-05,0.000442558998796495,0.09864716179236824
1.6300000000000001,3.16561220158998e-05,0.000499572879830512,-0.006885606877550056,-46.75166320572332,49.36401746171819,4.565688506007761,-1656540.2775274755,5088689.803614019,3603129.5649350807,-158.19901396428702,-5261.089256075646,7360.107181165082,0.9951240658982881,-4.679104939573434e-05,0.00044375020373540536,0.09863008854509835
1.635,-5.243859605191043e-06,0.0005135115174641781,-0.006851876492649238,-46.743500391181215,49.336337222168204,4.549636679985108,-1656541.0677924382,5088663.49816686,3603166.3659097,-157.9069711080509,-5261.089607365899,7360.282666464513,0.9951257630195992,-4.6843115983700676e-05,0.0004450000463110882,0.09861295835407102
1.6400000000000001,1.400260022904463e-06,0.000505678303523387,-0.0068444904607735885,-46.71848722797374,49.29600288020992,4.54996604908248,-1656541.8565973623,5088637.192717888,3603203.167761389,-157.61499855960625,-5261.08998149067,7360.458009259677,0.9951274515104133,-4.699038166436518e-05,0.0004462754724075754,0.0985959120881632
1.645,2.567866405154926e-07,0.0004899947948769522,-0.00683410042819744,-46.70119496754858,49.27150287098913,4.544100691657922,-1656542.6439428977,5088610.887267137,3603239.9704894563,-157.32321555218957,-5261.090319108712,7360.633217538861,0.9951291378968686,-4.711917891889428e-05,0.00044753304933223563,0.09857888416181101
1.6500000000000001,-4.05683400269511e-06,0.0005094090281535005,-0.0068441283561713325,-46.690441024828566,49.234183078290066,4.5347216324842945,-1656543.4298298147,5088584.581814676,3603276.77409333,-157.03155123883883,-5261.090665347646,7360.8083320581845,0.9951308214476742,-4.724694413712425e-05,0.0004487513277523707,0.09856188205817375
1.655,6.816499882221987e-06,0.0004985647698445639,-0.006874334884239699,-46.656595198985855,49.19545040461805,4.529190986163411,-1656544.214258679,5088558.276360534,3603313.5785723743,-156.73999453323717,-5261.090991169708,7360.983285553228,0.9951325071546537,-4.73902358921428e-05,0.0004500168412144925,0.09854485498036532
1.6600000000000001,-1.4354685794222604e-05,0.000499454268699228,-0.0068581518215597055,-46.64599186115505,49.16489893508437,4.519298241047238,-1656544.997230307,5088531.970904743,3603350.3839258426,-156.44865663423434,-5261.091325257118,7361.158101775778,0.9951342000226597,-4.7503838982088666e-05,0.00045125805105771227,0.09852775271372934
1.665,6.858175864278389e-06,0.0004952336655716774,-0.006872510472221446,-46.62351483602665,49.13385941728221,4.528136588739033,-1656545.778745481,5088505.665447289,3603387.1901530544,-156.1574129750327,-5261.09165625472,7361.332782968041,0.9951358886061716,-4.767031332923206e-05,0.0004524962607426167,0.09851069070248425
1.67,-4.110615940198118e-06,0.00048825819842706394,-0.006832360510252026,-46.60874415277215,49.08822481212616,4.530569697437563,-1656546.558804868,5088479.359988315,3603423.9972534846,-155.86634180904207,-5261.091933449954,7361.5073891160955,0.9951375804385011,-4.7782990269199856e-05,0.0004537291926323443,0.09849359291655214
1.675,-6.540495828381234e-06,0.000500004537051969,-0.006850359015241044,-46.578633574339335,49.0551225639405,4.521464064447212,-1656547.3374092882,5088453.05452815,3603460.805226549,-155.57542626490036,-5261.092132714276,7361.681836756328,0.9951392620975936,-4.7921192697261784e-05,0.0004549420744214244,0.09847659500168103
1.68,6.8585138207989446e-06,0.0004887260397268074,-0.0068510179090722784,-46.55905533769634,49.026359193034615,4.519336640802716,-1656548.114559599,5088426.749066919,3603497.6140715335,-155.28469808533225,-5261.0923596581415,7361.856156918441,0.9951409478814901,-4.806835260272865e-05,0.0004561835788115792,0.09845955228166149
1.685,1.6507760776626246e-05,0.0005019564006817024,-0.0068189124724718116,-46.55024862018289,48.98498499058886,4.51580114932858,-1656548.8902566223,5088400.443604581,3603534.4237878714,-154.9941112104092,-5261.092575302541,7362.030378243066,0.9951426335486256,-4.8179402298114744e-05,0.000457400321902973,0.09844250787945469
1.69,6.980415647336532e-06,0.0004989858975315376,-0.0068281870046183355,-46.52765125138144,48.9528542655927,4.510412347727606,-1656549.664500995,5088374.138141308,3603571.2343749087,-154.7036378665258,-5261.092734148205,7362.204436804445,0.9951443110083549,-4.826966539897086e-05,0.0004586523587079484,0.09842554330944772
1.695,-1.0634898867007219e-05,0.0005030204648840079,-0.006805121020901782,-46.515257492064556,48.9182590428711,4.504909189683973,-1656550.4372933926,5088347.8326772405,3603608.045831941,-154.41332116237615,-5261.09289287076,7362.378376128292,0.9951459904613165,-4.8382910894955084e-05,0.00045989465972596084,0.09840855564818231
1.7,-1.8539339641696227e-05,0.0005025300359813703,-0.006824743988576877,-46.487568523177885,48.88283920118151,4.50260883752872,-1656551.208634494,5088321.527212445,3603644.858158326,-154.12311948678433,-5261.093025442831,7362.552177613506,0.9951476639422131,-4.854094697088454e-05,0.0004611426671143533,0.0983916253630008
1.705,-4.8264045658921845e-06,0.0005007145309558788,-0.006800130706055014,-46.46911373551895,48.85587439645752,4.50035737168488,-1656551.9785250607,5088295.22174701,3603681.6713534174,-153.8331071115542,-5261.093148522612,7362.7258592018,0.9951493419591187,-4.871855023430534e-05,0.0004623875075369856,0.09837464623889954
1.71,-2.188922915759115e-05,0.0005316837204854197,-0.006818407168897398,-46.45227897924129,48.8169363791575,4.505182545402526,-1656552.7469658973,5088268.916280982,3603718.485416685,-153.54322757849894,-5261.093262594633,7362.899447935811,0.9951510136362677,-4.8861562486383736e-05,0.0004636312065888427,0.09835772830520813
1.715,-5.882349079251199e-06,0.000472155042745298,-0.006774742375208641,-46.42591356259663,48.78403787335737,4.500081523022179,-1656553.5139577263,5088242.610814554,3603755.3003475894,-153.25350397531622,-5261.093308825169,7363.072913597717,0.9951526894794708,-4.9054661273860385e-05,0.0004649477551722421,0.09834076488924247
1.72,-3.1759680448397424e-06,0.0004890113582908119,-0.006808286054620629,-46.41037789667694,48.73200514428144,4.479135523940022,-1656554.2795013753,5088216.305347882,3603792.116145525,-152.96395563766197,-5261.093359688082,7363.246260708887,0.9951543543698719,-4.919325082882508e-05,0.00046612014398827236,0.09832391006626583
1.725,-5.455766236444667e-07,0.0005083457526887628,-0.0068151524387746335,-46.38769004348419,48.70587778818885,4.482606792988331,-1656555.0435976333,5088189.999880955,3603828.9328095727,-152.6745475076938,-5261.093411404556,7363.419358327465,0.9951560271980062,-4.932928973795522e-05,0.00046733513038839505,0.09830697175672894
1.73,-5.244991424934487e-06,0.0004823593004799033,-0.006801270116697117,-46.371386361915036,48.668695103080324,4.482072917028373,-1656555.8062472446,5088163.69441382,3603865.750338933,-152.38529706420692,-5261.093442076941,7363.59238587458,0.9951577014012698,-4.946354429467768e-05,0.0004685988641178093,0.09829001633026391
1.735,3.472870382244502e-08,0.0004948837855154834,-0.006785340202042605,-46.346729694533714,48.64416025326888,4.478840497005828,-1656556.5674509625,5088137.388946643,3603902.568733103,-152.09619013488944,-5261.0934289615725,7363.76528206191,0.9951593719333379,-4.960308869894309e-05,0.0004697967931184141,0.09827309542164166
1.74,1.2042460734898322e-05,0.0004854863636812769,-0.006788201524312212,-46.32604841929471,48.59670277555267,4.475614275452258,-1656557.3272095337,5088111.0834794985,3603939.387991552,-151.8072382722394,-5261.093428890164,7363.938097464518,0.9951610382491253,-4.973255602163156e-05,0.00047102718074099953,0.09825621410878321
1.745,4.5405837829079245e-06,0.0004934619678198676,-0.006766790789659989,-46.31225547855616,48.570352953232145,4.475027846969875,-1656558.0855237902,5088084.778012474,3603976.2081136345,-151.5184643531102,-5261.09338084162,7364.110735688764,0.9951627049923496,-4.982984424391523e-05,0.00047223713758707826,0.0982393256358289
1.75,1.3427661331524044e-05,0.0004889464725477681,-0.006767609701960321,-46.30024006153896,48.5382365205574,4.47371598787959,-1656558.8423944593,5088058.4725457495,3604013.029098685,-151.22980329816136,-5261.093309027033,7364.283284354051,0.99516436617959,-4.9947729939790186e-05,0.000473465097075247,0.09822249041029836
1.7550000000000001,-1.1061859378484532e-05,0.0004849214946606428,-0.006789328266300286,-46.27080557663858,48.49513390346325,4.470154828474049,-1656559.5978221085,5088032.1670794785,3604049.850946187,-150.94125641490382,-5261.093199357268,7364.455716524367,0.9951660272880379,-5.004239752539371e-05,0.00047468400445217746,0.09820565310917022
1.76,2.202721020924942e-07,0.0005043816426066483,-0.0067645241667006455,-46.251937651226946,48.44842571197822,4.453821115365853,-1656560.351807546,5088005.861613803,3604086.6736554666,-150.65291859857027,-5261.093070866606,7364.627995312361,0.9951676934431519,-5.019703052881849e-05,0.0004758868826483915,0.09818876177531645
1.7650000000000001,2.305988439877e-06,0.0005096471558121372,-0.006763258107256416,-46.23293245695485,48.41706540003563,4.45453979381418,-1656561.1043516735,5087979.556148766,3604123.4972256096,-150.36473235353859,-5261.092944067188,7364.800061803639,0.9951693532006415,-5.0328341895563425e-05,0.00047714094854267044,0.09817193210785986
1.77,1.1752903016607391e-05,0.000502053485993656,-0.006753981591201884,-46.2090342495417,48.38691773437075,4.4612707801676414,-1656561.8554552367,5087953.250684436,3604160.3216558294,-150.07669292999705,-5261.092787375789,7364.972026176958,0.9951710123552271,-5.045575494918183e-05,0.00047840862654947934,0.09815510555888275
1.7750000000000001,9.113591922733451e-06,0.0005030497387784404,-0.006774196095771537,-46.18397108341108,48.35174268468111,4.448580587718852,-1656562.6051190388,5087926.945220994,3604197.14694568,-149.78882788345297,-5261.092589858369,7365.143914122266,0.995172668958036,-5.0557790260888674e-05,0.00047965973124611716,0.09813830205068477
1.78,9.380761954453303e-06,0.0005048787135937048,-0.006753139876317025,-46.15865257867096,48.31325849277893,4.444531829224113,-1656563.3533439245,5087900.639758472,3604233.973094595,-149.50112640540726,-5261.092418802004,7365.315651806377,0.9951743302327122,-5.0666660650322526e-05,0.0004809126643149175,0.09812144822500143
1.7850000000000001,-1.8877594899345452e-05,0.0004881641435686887,-0.00676814020055166,-46.14996288852314,48.277175609984745,4.439996095537143,-1656564.100130757,5087874.334296842,3604270.8001018497,-149.21360663241913,-5261.092233059759,7365.487250163223,0.9951759860539352,-5.0775289661935924e-05,0.00048217021582231464,0.09810464675707717
1.79,6.038765872015817e-07,0.000487745413594437,-0.006746779774596603,-46.119378909775726,48.24455095694284,4.435639990072705,-1656564.845480246,5087848.028836245,3604307.6279667355,-148.92618892558428,-5261.092006160258,7365.658704146654,0.9951776452849014,-5.095014239363082e-05,0.0004833792497500593,0.09808780797725551
1.795,9.476117454725449e-06,0.0005035152438267339,-0.006747417150978506,-46.10514876823483,48.21308979648254,4.438316454768261,-1656565.5893931326,5087821.723376754,3604344.456688611,-148.63896574840928,-5261.091790051111,7365.830045961588,0.9951792989953598,-5.1076397804678314e-05,0.00048459202172023303,0.09807102228935083
1.8,6.841792586312293e-06,0.0004871935744317885,-0.006715586095907643,-46.07683170272424,48.153395231313965,4.433454622926506,-1656566.3318702234,5087795.417918463,3604381.286266943,-148.3518705673342,-5261.091526322249,7366.001286795039,0.995180952559439,-5.118444670560508e-05,0.0004858462032662148,0.09805423497487065
1.805,1.5775674422443792e-05,0.0005148462954769896,-0.006747797132035462,-46.067695080055,48.12853039849214,4.435227400462531,-1656567.0729124176,5087769.1124616265,3604418.116700915,-148.06500712875757,-5261.091208241093,7366.17230215029,0.9951825980567102,-5.1295009982274064e-05,0.00048705913544398196,0.09803752683190764
1.81,1.162107256503651e-05,0.00047991229539371506,-0.006740380962512352,-46.04529091002315,48.09620472760051,4.420758223411757,-1656567.8125205252,5087742.807006478,3604454.9479897623,-147.77823588623218,-5261.090850881449,7366.343236661183,0.9951842511327581,-5.139016286764723e-05,0.0004883430517585031,0.09802073850694301
1.815,9.877272146950214e-06,0.0005045291818646601,-0.00674637361172926,-46.01589694670614,48.049920302802775,4.4100351036685925,-1656568.5506951371,5087716.501553032,3604491.780132917,-147.4916088625098,-5261.090528067638,7366.514025319324,0.9951859021491356,-5.148708252887904e-05,0.0004895390363766115,0.09800396861466061
1.82,-2.350867449657672e-05,0.0004866911201557304,-0.006724402505085351,-45.99678864567312,48.02843897315104,4.416736459578904,-1656569.2874371267,5087690.196101193,3604528.613129549,-147.20518703492115,-5261.090207104977,7366.684627441899,0.9951875543190722,-5.1594379404891396e-05,0.0004907958387810064,0.09798718378384162
