t_s,gyro_x_radps,gyro_y_radps,gyro_z_radps,accel_x_mps2,accel_y_mps2,accel_z_mps2,ins_pos_ecef_x_m,ins_pos_ecef_y_m,ins_pos_ecef_z_m,ins_vel_ecef_x_mps,ins_vel_ecef_y_mps,ins_vel_ecef_z_mps,ins_quat_w,ins_quat_x,ins_quat_y,ins_quat_z
0.0,-1.3854505840821768e-05,0.000600603267598386,-0.007401719782947728,-45.30309504301961,51.87544356861512,5.145026313941164,-1656201.7170614246,5097264.758841336,3591181.9960583495,-242.6143302865707,-4938.608152381165,6852.28340073394,0.9945218953682734,0.0,0.0,0.10452846326765354
0.005,-5.22473528375893e-06,0.0006055452537022167,-0.007424096184313123,-45.302375886116074,51.8641015233781,5.136643734159462,-1656202.929405271,5097240.065789406,3591216.2579395436,-242.32320827193075,-4938.612619334613,6852.469076803914,0.994523829422871,-1.913968650074485e-07,1.4896622745409875e-06,0.10451006031867216
0.01,-2.2899733950452957e-05,0.000608938979213168,-0.007409062141318968,-45.31575818835865,51.87152883098968,5.143013626673409,-1656204.1402935549,5097215.3727151025,3591250.520748968,-242.03210528147585,-4938.617102256704,6852.654692905782,0.9945257689800255,-3.6262875026497534e-07,2.993866589828644e-06,0.10449160169886414
0.015,1.5387704402313073e-05,0.0006088603288631943,-0.007377619617315748,-45.31786444417983,51.86372358870271,5.143723389926129,-1656205.349726175,5097190.6796184555,3591284.7844865858,-241.74094275822065,-4938.6215566836845,6852.840354274804,0.9945277042656132,-5.786926664699911e-07,4.501891564095824e-06,0.10447318042237955
0.02,6.73138440928136e-06,0.0005899739640517709,-0.0073952760495545455,-45.3239619935874,51.858098462884186,5.146262317696512,-1656206.5577030114,5097165.98649958,3591319.049152454,-241.44979178798368,-4938.6259934761565,6853.025993013263,0.9945296309969327,-6.995408911121038e-07,6.019721058557181e-06,0.10445483728568308
0.025,-1.0429641247905828e-05,0.0005969167487527731,-0.007391162577496097,-45.32380208617022,51.852194997925004,5.130563213896728,-1656207.764224073,5097141.29335859,3591353.3147464856,-241.15863285709446,-4938.630402080982,6853.211619625681,0.9945315619979032,-8.369798676270172e-07,7.488332410266182e-06,0.10443645021368367
0.03,-8.560020785720814e-06,0.0006206616528582388,-0.007413057119697161,-45.337567862937135,51.8549089664035,5.142330785128606,-1656208.9692893329,5097116.600195419,3591387.581268503,-240.8674710965151,-4938.634866720985,6853.3971873819855,0.9945334915827722,-1.0188994205189836e-06,8.969725222783567e-06,0.10441807333352766
0.035,-4.816996531243505e-06,0.0005966603670101649,-0.007382666857884883,-45.33335160035697,51.85393522810017,5.150405930716037,-1656210.1728986697,5097091.907010077,3591421.8487184616,-240.5762636113746,-4938.63927003298,6853.58279602047,0.9945354265396991,-1.2023694564215184e-06,1.0510643787816466e-05,0.10439964198013092
0.04,2.703159404525621e-06,0.0006135006514382498,-0.00740596452231571,-45.34359768477269,51.84314218092313,5.131454301123157,-1656211.375052061,5097067.213802763,3591456.117096541,-240.28509287521922,-4938.643655277087,6853.768435787819,0.9945373532229483,-1.3702679536579957e-06,1.1992864043923227e-05,0.10438128615123586
0.045,4.6994511587935505e-07,0.0006002224879400386,-0.007402264614999352,-45.33569990460218,51.846436713763666,5.142995709610809,-1656212.575749487,5097042.5205734335,3591490.3864025776,-239.9938775500508,-4938.648076746973,6853.953978806084,0.9945392856431841,-1.5238639853586014e-06,1.3518917354719208e-05,0.10436287236015519
0.05,1.8943146221546893e-06,0.0006121768207552266,-0.007397963822596067,-45.33705181609255,51.83860989149126,5.136991974476289,-1656213.774990961,5097017.827322032,3591524.656636482,-239.70271205327376,-4938.652483799811,6854.139583112708,0.9945412167554784,-1.6795480716398686e-06,1.501137387520453e-05,0.1043444677324603
0.055,-2.8001259318874735e-05,0.0005936239177228487,-0.007391109483672086,-45.3596618680466,51.83702928518805,5.136747748371006,-1656214.9727766234,5096993.13404857,3591558.9277983066,-239.41155291006592,-4938.656901163032,6854.325146581537,0.9945431464027437,-1.834808931720077e-06,1.653392466302842e-05,0.10432607376199736
0.06,-7.484284912642035e-06,0.0006358667933504319,-0.007388355572457457,-45.35982560509104,51.83424204719031,5.145028210076968,-1656216.169106258,5096968.440753126,3591593.199887904,-239.12030097988716,-4938.661276495509,6854.510692363801,0.9945450739207805,-2.0595617244447853e-06,1.80025491005864e-05,0.10430769679930454
0.065,1.464351401337995e-05,0.000587322617166075,-0.007395072618644813,-45.35649069944498,51.8238409243317,5.135217670541287,-1656217.363979685,5096943.747435885,3591627.4729052815,-238.82906975816618,-4938.6656197964985,6854.69625867217,0.994547000377093,-2.2443173956099158e-06,1.958155485165369e-05,0.10428932664684572
0.07,5.307008574277434e-06,0.0006035595812328192,-0.007384575166723119,-45.366193741341164,51.82037099101931,5.134647253663564,-1656218.5573970235,5096919.054096855,3591661.7468503457,-238.53786568477028,-4938.669992176981,6854.881767094776,0.994548928245245,-2.3613989560968595e-06,2.104563112940785e-05,0.10427093975667318
0.075,2.135284599894103e-05,0.0006096418692373127,-0.007397229011603965,-45.3729058447395,51.81461345780019,5.136677621185925,-1656219.7493582617,5096894.36073601,3591696.0217229147,-238.246629580012,-4938.674346141601,6855.06726035326,0.9945508530343856,-2.5059266009094783e-06,2.2547644784437607e-05,0.10425257893165013
0.08,1.5524709305997834e-05,0.0005921877368557172,-0.0073878286909336045,-45.36441557936771,51.81844451045138,5.13847233680279,-1656220.9398632916,5096869.667353463,3591730.2975229127,-237.95538233595727,-4938.678672376525,6855.252739009069,0.9945527807794362,-2.612144190422536e-06,2.406896326408219e-05,0.1042341866076212
0.085,-1.873046750968948e-05,0.0005850129923028304,-0.0074035232157108125,-45.38442821784776,51.805596239717865,5.13846435902298,-1656222.1289121825,5096844.973949219,3591764.5742503963,-237.66417410465556,-4938.6830250360745,6855.438254379415,0.994554705733966,-2.7283038939658626e-06,2.554536542938729e-05,0.1042158176210069
0.09,-1.1350571513615404e-05,0.0005779616918094563,-0.007390653178097345,-45.38497021129965,51.80758959071065,5.134771044547012,-1656223.316504882,5096820.280523371,3591798.8519053054,-237.3729056143966,-4938.68731439047,6855.623709270375,0.9945566344356203,-2.9277669125304777e-06,2.6995003460823023e-05,0.10419740957811845
0.095,-2.217642942925311e-06,0.0006054659734566,-0.0073955505353579245,-45.384222096973936,51.80168038380061,5.137792675877508,-1656224.502641226,5096795.587076012,3591833.1304875044,-237.08163205052963,-4938.691629049992,6855.8091702852935,0.99455855944302,-3.1070429321807716e-06,2.842903169803561e-05,0.10417903349888287
0.1,5.820526356043837e-07,0.0005979796424429711,-0.007386522138338771,-45.38277703479894,51.79297133170413,5.137340252775702,-1656225.6873212617,5096770.893607122,3591867.4099969934,-236.7903822448898,-4938.695927161559,6855.9946252459695,0.9945604853821094,-3.270774641712018e-06,2.9933825083466335e-05,0.10416064520619611
0.105,-9.29517014353027e-06,0.0006184671012132479,-0.00739735738672087,-45.391885853963124,51.78785526975303,5.137224565642203,-1656226.8705451174,5096746.20011676,3591901.6904336903,-236.49916000593734,-4938.700217442027,6856.180053711754,0.9945624086289578,-3.425595055373188e-06,3.142073355515514e-05,0.10414227932577998
0.11,6.366209477541137e-06,0.0006160040128811876,-0.007382257939148874,-45.39009226074834,51.77502105242294,5.138202129265149,-1656228.0523127974,5096721.506605004,3591935.9717974802,-236.2079119694767,-4938.70448498402,6856.365462119384,0.9945643343531824,-3.6103091318011023e-06,3.2956010472866776e-05,0.10412388646933148
0.115,1.8485877639252522e-05,0.0006111122640219254,-0.007375024045355133,-45.395290747099395,51.77600916738045,5.130071680665925,-1656229.2326243334,5096696.813071966,3591970.2540882146,-235.9167024398367,-4938.708730361704,6856.550831606229,0.9945662558053968,-3.755440173089158e-06,3.448924007530784e-05,0.10410553111925858
0.12,8.77396558494929e-06,0.0006197275533569027,-0.00739384276302981,-45.4069479996029,51.7744260314995,5.134520648042187,-1656230.4114797474,5096672.119517623,3592004.53730576,-235.62546316578545,-4938.713006562172,6856.736186748938,0.9945681750346564,-3.869162911627385e-06,3.601346112419917e-05,0.10408719371898345
0.125,-1.6152037261839868e-05,0.0005974203598721023,-0.007407673474505509,-45.397066115772475,51.76923990469576,5.133511824469483,-1656231.5888788705,5096647.425941995,3592038.821450094,-235.33418607504234,-4938.7172447921785,6856.921546748156,0.9945700988186986,-4.009277092998418e-06,3.7556575996006e-05,0.10406880949253443
0.13,1.7910989583410264e-06,0.0006002155637582328,-0.007392550808363387,-45.41052920876191,51.77316080390909,5.130108528762415,-1656232.7648217534,5096622.732345127,3592073.1065212116,-235.04296713091412,-4938.721502792531,6857.10690023453,0.9945720258601839,-4.205565506711753e-06,3.903774049856367e-05,0.10405039084375316
0.135,-7.535979989805521e-06,0.0005877798502357868,-0.007382404432223003,-45.41256292867608,51.7536884107201,5.142739863325447,-1656233.9393083767,5096598.038726962,3592107.3925191057,-234.75168216455765,-4938.7257626962155,6857.29225740461,0.994573948625154,-4.357965194881324e-06,4.053052270149175e-05,0.10403200975879752
0.14,-1.5831424162542575e-06,0.0006008313277430116,-0.007386709948137008,-45.41616927915035,51.75119832860941,5.1288966683054635,-1656235.1123386961,5096573.345087727,3592141.679443694,-234.4604456406443,-4938.729931447785,6857.477578022401,0.994575868410977,-4.530320747127233e-06,4.198995862237654e-05,0.10401365386751184
0.145,9.525205049881266e-06,0.0006057239884179387,-0.007373508047730616,-45.415440230274434,51.74838814795008,5.13255819262014,-1656236.2839127742,5096548.651427526,3592175.967294778,-234.1691855162947,-4938.7341489297505,6857.6628555611005,0.9945777889739081,-4.691269207952496e-06,4.34833941324988e-05,0.10399528723436793
0.15,-1.3249112060427072e-06,0.0006096488440378557,-0.007405988594714082,-45.41489722373591,51.74298876945239,5.134743826266793,-1656237.4540305985,5096523.957746268,3592210.2560722707,-233.87794421046112,-4938.738354332852,6857.848141400768,0.9945797057632695,-4.825867976988612e-06,4.4991883151107675e-05,0.10397695339011351
0.155,2.0745174472684278e-05,0.0006125515406164148,-0.007383251914505384,-45.41580282840713,51.73572364224765,5.134912286628387,-1656238.6226922683,5096499.264044014,3592244.545776176,-233.586723731022,-4938.742547152424,6858.033420749022,0.9945816306533793,-4.988468897677655e-06,4.6507310311676806e-05,0.1039585387500722
0.16,-1.2865405495397923e-05,0.0006150859688948313,-0.0073746948169239445,-45.41729318222144,51.73185272108631,5.129622766710651,-1656239.7898978738,5096474.570320826,3592278.8364064256,-233.29551844478218,-4938.746728137222,6858.218679189909,0.9945835492920225,-5.096945318827306e-06,4.8035691096180314e-05,0.10394018060536885
0.165,4.846212161618023e-06,0.0005943528722457807,-0.007407398684885694,-45.431033383460985,51.726616175911595,5.134659124775303,-1656240.955647451,5096449.876576693,3592313.1279629106,-233.00431252625202,-4938.750925292683,6858.403914716446,0.9945854653655587,-5.289650607737743e-06,4.956164000056291e-05,0.10392184370592407
0.17,9.589702686334047e-06,0.0005856880613039944,-0.007413364198475047,-45.42979786204323,51.71507367279066,5.131950364096948,-1656242.1199408998,5096425.182811705,3592347.420445548,-232.7130668805379,-4938.755069564394,6858.589140139526,0.9945873895966639,-5.432934099176938e-06,5.104063792388954e-05,0.10390342545186054
0.17500000000000002,-1.6000389436953076e-05,0.0006078901687290538,-0.007386360282466324,-45.42616716054646,51.71362965564628,5.138012487579184,-1656243.2827781923,5096400.489026011,3592381.7138542007,-232.42185013103133,-4938.759208001633,6858.7743210928575,0.9945893150350147,-5.562173051458441e-06,5.249932313160828e-05,0.10388499232836104
0.18,1.7636444659708555e-07,0.0006164512202280377,-0.0073583556143772605,-45.43702503737344,51.715568185003896,5.132396283624176,-1656244.444159482,5096375.795219656,3592416.0081888163,-232.13066577196636,-4938.763334022473,6858.959525110558,0.9945912331142391,-5.760803702494581e-06,5.400656757747224e-05,0.10386662631664238
0.185,2.9643268532443095e-05,0.0006047214173201392,-0.007387002568785145,-45.43695861642844,51.69738822386363,5.125191970781095,-1656245.604084716,5096351.101392643,3592450.303449431,-231.83942781326007,-4938.767471495078,6859.144720820398,0.9945931435804726,-5.92143044533037e-06,5.5539299837231e-05,0.10384832990008297
0.19,1.8629596309720267e-06,0.0006342463938313036,-0.0073834976783189975,-45.43253013830018,51.69272645141708,5.1196613366629276,-1656246.762553835,5096326.407544956,3592484.599635812,-231.5482198547099,-4938.771603225733,6859.329831523583,0.9945950611459043,-6.00574691070713e-06,5.7050515921986994e-05,0.10382996221392213
0.195,1.2425381939227797e-05,0.000610225486289309,-0.007384304385705497,-45.43679798918124,51.67734491408109,5.125259630669709,-1656247.919566982,5096301.713676541,3592518.896747692,-231.25703887469354,-4938.775762471694,6859.514920501979,0.9945969774554922,-6.166802212191274e-06,5.8627934458265595e-05,0.1038116032105033
0.2,-2.130120908935341e-06,0.0006105711286440377,-0.007386996872981513,-45.44275307359887,51.679342729410074,5.130436345737155,-1656249.0751242787,5096277.019787478,3592553.194784913,-230.96587981212136,-4938.779862965198,6859.699967950257,0.9945988936367982,-6.2953601242319275e-06,6.014836641188243e-05,0.10379324216440843
0.20500000000000002,4.870347424055568e-07,0.0006061992451866899,-0.007408238643607965,-45.446515935627744,51.67476111584257,5.121942618596655,-1656250.2292257352,5096252.3258779645,3592587.4937474374,-230.6747028120624,-4938.783942572257,6859.8850417265385,0.9946008101750788,-6.460200344910355e-06,6.166588083415645e-05,0.10377487439000734
0.21,-1.558885938217758e-05,0.0006186622157366755,-0.007371024002298239,-45.44065142678148,51.66940514098445,5.129638583290827,-1656251.3818712726,5096227.631947996,3592621.7936352384,-230.38351218260016,-4938.788044700388,6860.070078792931,0.9946027318824964,-6.617402046125623e-06,6.317320318255706e-05,0.10375645376183337
0.215,-1.774688317001653e-05,0.0006044718244944546,-0.007393237356723572,-45.44193764733463,51.65114817171471,5.119457094403826,-1656252.533060986,5096202.937997575,3592656.0944482596,-230.09237317544472,-4938.792123627548,6860.255129533022,0.9946046435927475,-6.8178034722488e-06,6.470734544188602e-05,0.1037381256347972
0.22,9.176694167176547e-07,0.0006267769713119091,-0.007363703986114001,-45.44073641181221,51.65840714550629,5.130792201982041,-1656253.682795055,5096178.244026752,3592690.396186297,-229.80125442171843,-4938.796205601714,6860.4400854733285,0.9946065607250973,-7.0198942291819855e-06,6.620564305449281e-05,0.10371974223901248
0.225,-1.319357897085803e-05,0.0005847705212462125,-0.007366494639709725,-45.448701686710564,51.6375979568177,5.1203135004841736,-1656254.8310735612,5096153.550035565,3592724.6988492915,-229.51014802409574,-4938.800269221387,6860.62511240876,0.9946084698553138,-7.181354089577055e-06,6.776424298258055e-05,0.1037014322394196
0.23,8.77342794716377e-06,0.0006031005178505302,-0.007382726584669774,-45.45932753864396,51.6407455990553,5.1244888372867505,-1656255.977896522,5096128.856024099,3592759.0024371417,-229.2190362708157,-4938.804317431536,6860.8100276584,0.9946103793763943,-7.3670120156154465e-06,6.921473451821192e-05,0.10368311526855621
0.23500000000000001,1.323934503761267e-06,0.0006143914333502755,-0.007395892321572197,-45.45137622438877,51.62171942456016,5.120014209980935,-1656257.1232638182,5096104.16199245,3592793.3069496285,-228.92788225875327,-4938.8083417340595,6860.994967060778,0.994612292761886,-7.502802493024413e-06,7.071649776267615e-05,0.10366475789693061
0.24,1.571998248495051e-05,0.0006093448640302095,-0.007386663211573726,-45.457489381228676,51.6192457398921,5.125426974426004,-1656258.2671755203,5096079.467940686,3592827.612386627,-228.63679854815652,-4938.812363860072,6861.179832410403,0.9946142092155718,-7.66004486487842e-06,7.224440531943795e-05,0.10364636775378376
0.245,1.9577362720199094e-05,0.0005839920626824939,-0.007402835373216831,-45.45662111716185,51.612859437702305,5.12597293054855,-1656259.4096317783,5096054.773868892,3592861.9187479746,-228.34570465886688,-4938.816353655284,6861.364706491831,0.9946161229371023,-7.78018163607765e-06,7.376349479942683e-05,0.10362800052101133
0.25,9.948651849689698e-06,0.0005895816701637335,-0.007384263213388926,-45.45605146392959,51.60557616397922,5.121461490361295,-1656260.5506326219,5096030.079777169,3592896.2260336555,-228.0546327332229,-4938.820335735982,6861.549565786067,0.9946180405109643,-7.884161705176707e-06,7.522054250853603e-05,0.1036095930396416
0.255,1.377242460979244e-05,0.0005968941176136434,-0.007371077181334639,-45.460547305581734,51.598126266007476,5.124384549814086,-1656261.6901781452,5096005.385665512,3592930.5342435506,-227.76357659234748,-4938.824327407909,6861.734392262138,0.9946199529309929,-8.013528345280655e-06,7.668899530191205e-05,0.10359123170486362
0.26,5.212004669492451e-06,0.0006204375013616276,-0.007370991961697148,-45.456853543050876,51.5849965695875,5.1158682976709535,-1656262.828268395,5095980.691533972,3592964.843377535,-227.47252338345712,-4938.828288531297,6861.919201682647,0.9946218615942568,-8.135278216471099e-06,7.817662137186751e-05,0.1035729031214641
0.265,2.7221428558638852e-05,0.0006179877222764052,-0.00739100881533805,-45.47900935645136,51.58651850771368,5.121671606965094,-1656263.964903467,5095955.99738258,3592999.1534354044,-227.1815054532569,-4938.832268078015,6862.103946006914,0.994623769890625,-8.28441016177512e-06,7.972057275839127e-05,0.10355457471575125
0.27,-1.3448234568301383e-05,0.0006115249293745999,-0.007390344022002156,-45.470065906215815,51.576947762399136,5.11943357229773,-1656265.1000832275,5095931.303211436,3593033.464417026,-226.89039873751017,-4938.83618978974,6862.288702651775,0.9946256830289782,-8.378184138647057e-06,8.126413012306278e-05,0.10353619649709829
0.275,1.9327931891701125e-05,0.0005951892120284665,-0.007367385533704731,-45.4714216682864,51.56613877639052,5.1126207800181565,-1656266.2338076055,5095906.60902065,3593067.7763223597,-226.59935236759767,-4938.840124106752,6862.473430715596,0.9946275956538116,-8.571412873750547e-06,8.278109036863233e-05,0.10351781990430357
0.28,-1.4198525283834567e-05,0.0005870347256068675,-0.007370497367170337,-45.46673931480266,51.57006767289417,5.11934257343876,-1656267.366076778,5095881.914810178,3593102.0891511953,-226.30831662801623,-4938.844065061723,6862.658103563796,0.9946295020004609,-8.67890906088262e-06,8.42659134828859e-05,0.10349950035747811
0.28500000000000003,2.295327967343579e-06,0.0006038630645355474,-0.007372889449866084,-45.46643032748176,51.549938680838856,5.117345598506216,-1656268.496890842,5095857.220580001,3593136.402903514,-226.01730898366887,-4938.848005355922,6862.842823956053,0.9946314088135492,-8.867661945935407e-06,8.57217848400026e-05,0.1034811730447368
0.29,-3.291457887188458e-06,0.0006103452017458834,-0.007369824262110814,-45.466950220426135,51.54140181536952,5.117314930007703,-1656269.6262499706,5095832.526330199,3593170.7175792395,-225.7263425667384,-4938.85191544419,6863.02746617142,0.994633315902217,-9.019755619984542e-06,8.722376810912957e-05,0.10346283974461083
0.295,-1.4458283542158939e-05,0.000600836044521296,-0.0073580809439876315,-45.475066393003985,51.53743301738076,5.117799952129164,-1656270.7541543148,5095807.83206088,3593205.03317811,-225.43539504994686,-4938.855812314026,6863.212082046324,0.9946352218564384,-9.187417281713847e-06,8.874042472979644e-05,0.10344451403202667
0.3,8.217057923358502e-06,0.0005947318911298413,-0.007362412753178511,-45.46952189331977,51.5291595653579,5.113815706506448,-1656271.8806038643,5095783.137772128,3593239.3497000276,-225.1444247606011,-4938.859688715694,6863.396685073857,0.9946371244361718,-9.380384454952855e-06,9.023054836601482e-05,0.10342621748763582
0.305,-1.6562817408587802e-05,0.0006182286310818649,-0.007382310768938618,-45.471056838783085,51.51670833210214,5.12162174164721,-1656273.0055986636,5095758.443463954,3593273.6671448825,-224.85349494182765,-4938.863580580512,6863.581256914564,0.9946390277988815,-9.515389937329694e-06,9.171135638795096e-05,0.10340791013157809
0.31,-2.3429254459114504e-05,0.0006161508256038082,-0.00737667610318969,-45.46862979677615,51.50761564366735,5.105542556230973,-1656274.1291388925,5095733.74913646,3593307.985512544,-224.56259664766984,-4938.867417289461,6863.765807567604,0.9946409359594786,-9.718091928344747e-06,9.324418475382663e-05,0.10338955326691981
0.315,2.1692639216845577e-05,0.0005841979741650701,-0.007365112541218981,-45.47204147487326,51.5033428243913,5.115568453822736,-1656275.2512246615,5095709.054789645,3593342.304802781,-224.2717108820111,-4938.871308855368,6863.95028726918,0.9946428423230769,-9.937329642527731e-06,9.477007175402621e-05,0.10337121037965007
0.32,-2.295271444316074e-05,0.0005920507272802675,-0.007369365906152719,-45.47401780426512,51.48916476251191,5.114964069862236,-1656276.371856029,5095684.360423494,3593376.625015458,-223.98083617456072,-4938.875151361221,6864.134783577217,0.99464474536703,-1.0036106679832335e-05,9.622816558358921e-05,0.10335289620118467
0.325,-9.800280647314893e-06,0.0006103472597132994,-0.007367381959237924,-45.46978676882633,51.47931012106751,5.114934552438951,-1656277.491033078,5095659.666038197,3593410.9461504864,-223.68998337756074,-4938.878967003175,6864.319227802849,0.9946466491674045,-1.0247929414948337e-05,9.769425045613108e-05,0.10333457142151115
0.33,1.2969983617518602e-05,0.0006060919370808776,-0.00737875775521275,-45.468943527838306,51.48099841832537,5.110086145885081,-1656278.6087559692,5095634.971633839,3593445.268207667,-223.39917311436372,-4938.8827762207775,6864.50364436,0.994648552111358,-1.0431773262345018e-05,9.920922956058993e-05,0.10331625153617363
0.335,-1.0175881625847095e-05,0.0006276052316060627,-0.007371867366006263,-45.4805391352384,51.46724761073592,5.110572735904486,-1656279.7250248094,5095610.277210356,3593479.5911869374,-223.108363011504,-4938.886617372262,6864.688063731902,0.9946504576549764,-1.055789979173865e-05,0.0001007195083040735,0.10329790332266002
0.34,3.391978979088535e-06,0.0006222780861857675,-0.007361940513402713,-45.469531689931934,51.46025265007385,5.109399629364935,-1656280.8398395479,5095585.582767791,3593513.9150881656,-222.81753238880626,-4938.890408526684,6864.872427639184,0.9946523610726411,-1.0747135391714959e-05,0.0001022773054171793,0.10327957221286452
0.34500000000000003,1.0489531543642478e-05,0.0006017814639412047,-0.007365223388384479,-45.48407986775219,51.44400569881821,5.103938418102751,-1656281.9532002988,5095560.888306224,3593548.23991118,-222.52676796779102,-4938.89421820778,6865.056778079348,0.9946542615891198,-1.0901254725064085e-05,0.00010382535932473218,0.10326126574887726
0.35000000000000003,-4.468741088515795e-06,0.0005996655737089086,-0.007360847776911684,-45.47298461857475,51.436707067185154,5.103708886930848,-1656283.0651071356,5095536.193825705,3593582.5656557344,-222.23596671744676,-4938.8979895306675,6865.241043772574,0.9946561626191891,-1.1032434611658421e-05,0.0001053242777313848,0.10324295108505642
0.355,5.0677460724363186e-06,0.0005969758808574498,-0.00735923905824069,-45.48191048936499,51.42434490167533,5.110719862022154,-1656284.1755601368,5095511.499326293,3593616.8923215875,-221.9452338128246,-4938.9017751360825,6865.425297463372,0.9946580621807527,-1.1200263060597703e-05,0.00010681407392412534,0.1032246472705891
0.36,-2.3568233255005645e-05,0.0006289805344509454,-0.007337762077252189,-45.48700982087079,51.41446781534028,5.10121736863931,-1656285.2845594666,5095486.804808121,3593651.2199086356,-221.65449813174587,-4938.905493697962,6865.609521805523,0.9946599609891722,-1.1343683110048929e-05,0.00010829964281511848,0.10320634741878391
0.365,1.1859438205966008e-05,0.0006017930833818477,-0.007346268537923272,-45.47739716293451,51.40958517223617,5.095645697323278,-1656286.3921050897,5095462.110271327,3593685.5484166504,-221.3637511033695,-4938.909223857699,6865.793683964893,0.9946618539086719,-1.1566562704464754e-05,0.00010985740811003114,0.10318810094448178
0.37,8.709280817992011e-06,0.0006125300070770332,-0.007377930022307534,-45.475847508197084,51.40440192682296,5.101778126241178,-1656287.4981971039,5095437.4157157885,3593719.8778454293,-221.07305450716723,-4938.912991805308,6865.97782768366,0.99466374869361,-1.1694334694153731e-05,0.00011135670660583725,0.10316983327359645
0.375,-1.700153088699812e-06,0.0006130236214729064,-0.007381771286246389,-45.478120585824044,51.38575535644906,5.117092063351926,-1656288.6028357097,5095412.721141473,3593754.2081949427,-220.78238780947453,-4938.916734109379,6866.161977624238,0.9946656513025024,-1.1832718179109344e-05,0.00011288189070691104,0.10315148683676037
0.38,4.115148893106925e-06,0.0006014236483218213,-0.007347763331949388,-45.479750610976836,51.3730673474436,5.095142180312892,-1656289.7060211047,5095388.026548698,3593788.5394651406,-220.4917702158284,-4938.920375964232,6866.346101630209,0.9946675545606202,-1.1997114802572409e-05,0.00011440561773741416,0.10313313081556028
0.385,1.0678340686439267e-05,0.0005803870245418424,-0.007361878887694285,-45.48180205816246,51.36674749113362,5.100810317496458,-1656290.8077533953,5095363.33193756,3593822.8716556956,-220.20114597554308,-4938.924079212557,6866.530120224011,0.9946694487143779,-1.2144050110811775e-05,0.00011590199983229825,0.10311485932436683
0.39,3.4247410175921315e-06,0.0005975699213314137,-0.0073537182498165056,-45.47387101338022,51.35487723982074,5.097410037313701,-1656291.9080326026,5095338.63730799,3593857.204766336,-219.9105369786731,-4938.92774864251,6866.714136064434,0.9946713461747857,-1.2269246017813976e-05,0.00011734776214824806,0.10309655269604356
0.395,1.142883103964107e-05,0.0005919105249757433,-0.007361658282241391,-45.47212851319227,51.34968902302648,5.09904575847665,-1656293.006858911,5095313.94266005,3593891.5387969506,-219.61998639746542,-4938.931427887895,6866.898109762749,0.9946732411878838,-1.2416905639481764e-05,0.00011883438345944903,0.10307826632709575
0.4,1.7375357792608955e-05,0.000589822382752806,-0.007362423785484992,-45.48107118432795,51.33293775021503,5.092821129509439,-1656294.104232529,5095289.24799373,3593925.873747418,-219.32946081281145,-4938.935099614185,6867.0820772480165,0.9946751379102792,-1.2543205578471191e-05,0.00012030899397772057,0.10305996017649707
0.405,-1.720305259642777e-05,0.0005949086538817491,-0.007359796385826096,-45.46725526466257,51.33099984563973,5.09826707097412,-1656295.2001534896,5095264.553309116,3593960.2096175128,-219.03892336909038,-4938.938746383083,6867.265960564015,0.994677034491605,-1.2654180577993506e-05,0.00012177994399511259,0.10304165208547135
0.41000000000000003,1.772369617373008e-05,0.0006126343871979756,-0.007357325269496518,-45.48414989338324,51.315581508136454,5.097596600681444,-1656296.2946219577,5095239.858606243,3593994.5464070938,-218.74846394478138,-4938.9424028932735,6867.449871771129,0.9946789300544168,-1.285245089449745e-05,0.000123254634505489,0.10302335050322486
0.41500000000000004,2.46843953282798e-05,0.0005738862524710215,-0.007350301432815597,-45.47341903162532,51.306662183403084,5.098541968211118,-1656297.387638022,5095215.163885237,3594028.8841160554,-218.45796173561155,-4938.945999255727,6867.633712979374,0.9946808246375366,-1.2968433603534153e-05,0.00012478239926359323,0.1030050550194641
0.42,9.90131718228096e-06,0.0005895091362928841,-0.007349415349775044,-45.47952615239187,51.29829288413453,5.090666442342369,-1656298.479201753,5095190.469146237,3594063.222744184,-218.16753067555632,-4938.949600761814,6867.817538555219,0.9946827170858565,-1.3057126797719343e-05,0.0001262156016084633,0.1029867769659354
0.425,8.321435989481468e-06,0.0005862349649208145,-0.00734282848070219,-45.47285888892727,51.28505699846935,5.089856445837396,-1656299.5693132873,5095165.774389213,3594097.56229131,-217.87708305034315,-4938.953208799693,6868.0013117441995,0.9946846089626887,-1.3186603264850636e-05,0.0001276838473167656,0.10296850108500083
0.43,1.445814608807671e-06,0.0006121906878742576,-0.007362846144552588,-45.47628145729099,51.27691699893171,5.094205938375371,-1656300.6579727298,5095141.079614164,3594131.902757198,-217.5866939640279,-4938.956810683776,6868.185043396665,0.9946864988072731,-1.3319163492376502e-05,0.00012914354458420075,0.10295024154936952
0.435,9.808826828858312e-06,0.000583447448704224,-0.007347294761001637,-45.46397067976308,51.263749931781796,5.095014178659701,-1656301.7451802536,5095116.384821195,3594166.2441417063,-217.29631557504723,-4938.960376957381,6868.368760042784,0.9946883934569669,-1.3475508267517748e-05,0.0001306660160419239,0.10293193220182568
0.44,2.6008568436944104e-05,0.000600094125216587,-0.00736301813066707,-45.463053425420256,51.24922683722729,5.089362945906276,-1656302.8309361,5095091.690010397,3594200.5864447183,-217.00602295186584,-4938.963942468698,6868.552444763075,0.9946902837759624,-1.3603654987144347e-05,0.0001321191636156222,0.10291366148943797
0.445,-6.911558016501079e-06,0.00059924179911978,-0.0073460473163540225,-45.465176832247614,51.23378671670605,5.080317774647097,-1656303.9152405555,5095066.995181775,3594234.929665991,-216.71575924483957,-4938.967506128395,6868.736064296479,0.9946921777968848,-1.3695805507670475e-05,0.00013361787426488948,0.1028953516364036
0.45,-8.259672424753037e-06,0.0006016929604774428,-0.007337879765815701,-45.4588762165515,51.22073530637924,5.0827699580905605,-1656304.998093724,5095042.300335327,3594269.273805159,-216.42550817635916,-4938.971072943548,6868.9196028917,0.9946940671129189,-1.3869594584231179e-05,0.0001351059976245358,0.10287708396121975
0.455,9.302844393590194e-06,0.0005995448580399389,-0.007341609449290325,-45.47332791759982,51.2139253503263,5.082446508868635,-1656306.079495789,5095017.605471094,3594303.61886194,-216.1353178306449,-4938.974620406357,6869.103109489206,0.9946959539900867,-1.4047363721717774e-05,0.00013659986988551334,0.10285883656204993
0.46,-1.149063268174307e-05,0.0005890901574658288,-0.007355916366969849,-45.46429103216817,51.197147499361634,5.085926937534387,-1656307.1594467845,5094992.910589215,3594337.964836174,-215.8450803697968,-4938.978131017894,6869.286584054288,0.9946978414905258,-1.4180908338779864e-05,0.0001380929163473192,0.10284057984734092
0.465,2.935575219314451e-06,0.0005973979338573401,-0.0073480213948041865,-45.45898645030318,51.196512622644256,5.0851056544740505,-1656308.2379467955,5094968.21568985,3594372.3117276756,-215.5549239754579,-4938.9816153065,6869.4700166976645,0.9946997323342318,-1.4363478038468025e-05,0.00013955461805166398,0.10282228752759216
0.47000000000000003,2.6213441724874405e-05,0.0006071622398195552,-0.0073456266392271955,-45.4627018975591,51.184527881743435,5.080561497996155,-1656309.314996098,5094943.520773012,3594406.6595363617,-215.2647970595488,-4938.98511950787,6869.65345772244,0.99470162080789,-1.451230617741388e-05,0.00014104068768867783,0.10280401480036695
0.47500000000000003,2.6481342911951716e-05,0.000593661310366156,-0.0073494787617688585,-45.458594389945155,51.17933459059052,5.076818293329953,-1656310.3905947783,5094918.825838679,3594441.0082621137,-214.97467510066147,-4938.988613751169,6869.836843029433,0.9947035083256547,-1.4605756662823369e-05,0.0001425570214374219,0.10278574798483364
0.48,-3.1731768902811482e-06,0.0005890589894756493,-0.00738552003889101,-45.4554887228561,51.158647211549905,5.076682486456344,-1656311.4647429208,5094894.1308868285,3594475.357904744,-214.68458181426055,-4938.992126468589,6870.020209057987,0.9947053965002246,-1.4695073052680335e-05,0.00014403985028341474,0.1027674715554847
0.485,-4.1439513352103747e-07,0.0005945179207753121,-0.007355255530454277,-45.459511599668126,51.14521072170653,5.082703107564704,-1656312.537440739,5094869.435917498,3594509.7084640223,-214.39454550386088,-4938.995605957505,6870.203502171395,0.9947072935954072,-1.4856963770956989e-05,0.00014550361407253748,0.10274910547576238
0.49,1.5687806535318818e-05,0.0005903414037240287,-0.007328732312846475,-45.455818157457266,51.13458621059462,5.07995392240436,-1656313.6086884253,5094844.740930908,3594544.059939685,-214.1045289694868,-4938.999029939898,6870.386762989007,0.9947091825746804,-1.5013385275102235e-05,0.0001469816626888791,0.10273081462054187
0.495,-4.0948628820969025e-06,0.0006038578148771214,-0.007332335557728038,-45.446001135086384,51.12058527988922,5.072463828818867,-1656314.6784861237,5094820.045927195,3594578.4123315546,-213.81455038489776,-4939.002455247926,6870.569984900424,0.9947110644069066,-1.5128681865944634e-05,0.00014845346168197024,0.10271258968194551
0.5,2.2757167427471453e-05,0.0005941222201922195,-0.007347481595440832,-45.45168842700797,51.105008021387924,5.078269279773749,-1656315.7468340925,5094795.350906294,3594612.765639382,-213.52463721117064,-4939.005905398731,6870.753146104979,0.9947129468223188,-1.529664565331952e-05,0.00014995379297488447,0.10269435575498553
0.505,2.1348890405763654e-06,0.0005955623234399239,-0.007336687120211084,-45.44871835719449,51.10139554189081,5.06691962370431,-1656316.8137325353,5094770.655868298,3594647.119862908,-213.23473992962434,-4939.009292498,6870.9362642630795,0.9947148327937724,-1.539534048147442e-05,0.00015143680721245055,0.10267608411862279
0.51,9.981605705875022e-06,0.0005980997843299578,-0.007329632990759853,-45.444343449828494,51.09374898740326,5.070673400796317,-1656317.8791815192,5094745.960813244,3594681.4750019372,-212.9448535815307,-4939.012729335572,6871.119347306708,0.9947167156557162,-1.5545684093604742e-05,0.00015291810950729916,0.1026578392987534
0.515,-2.1779556937662813e-06,0.0005991239266617429,-0.007327905093201493,-45.441593777201184,51.07616756558647,5.07747994356415,-1656318.943181181,5094721.265741046,3594715.831056361,-212.65501113937094,-4939.016150048401,6871.302422261562,0.9947185963700562,-1.5677163078768557e-05,0.0001544077359789182,0.10263961198320538
0.52,3.976743661627902e-06,0.0005898139314729848,-0.007329581094144078,-45.4368375526461,51.056086840257386,5.0685222067092335,-1656320.005731777,5094696.5706518795,3594750.1880260566,-212.36522728655558,-4939.01951651427,6871.485455971776,0.9947204763039994,-1.583914254018327e-05,0.00015589678916797572,0.10262138893455534
0.525,8.327422438100764e-06,0.0006249640179361168,-0.007343692971864752,-45.43558559789056,51.05241237573235,5.065256289613646,-1656321.0668335836,5094671.875545865,3594784.5459106863,-212.07549532403854,-4939.022889287212,6871.668395900409,0.9947223563356833,-1.5983428624178033e-05,0.00015736426914036,0.10260316168131839
0.53,-2.2478714208793727e-05,0.000609394204695365,-0.007310988148595201,-45.441289172919,51.03537347581632,5.061376948425769,-1656322.1264867645,5094647.180422951,3594818.90470998,-211.7857770496257,-4939.026276257705,6871.851321572841,0.9947242396365861,-1.61259172359179e-05,0.00015892027592112116,0.10258489929671065
0.535,1.1893630198410749e-05,0.0005851742840087161,-0.00734055473941778,-45.434813837332975,51.02027353459388,5.067518104487067,-1656323.1846913693,5094622.485283173,3594853.2644237117,-211.4960648259991,-4939.029634943769,6872.034171204539,0.9947261142187168,-1.6341008806377483e-05,0.00016042966417901028,0.10256671822100284
0.54,1.612274526727938e-05,0.0005840644747839416,-0.007325388142760397,-45.433809959182824,51.018661227280845,5.0649900580591956,-1656324.2414475875,5094597.790126697,3594887.625051617,-211.206422477579,-4939.032955339481,6872.216990907983,0.9947279960574646,-1.6464424163796934e-05,0.00016188763435229264,0.1025484635712167
0.545,1.2625753044854411e-05,0.0005947366961535845,-0.007302352824261076,-45.42709803893697,50.99831386893239,5.066282654922274,-1656325.2967556184,5094573.094953581,3594921.986593611,-210.91678991042846,-4939.036291235252,6872.399806588308,0.9947298736721252,-1.6577031806467105e-05,0.00016334392942246164,0.10253024660167696
0.55,-1.527299598733912e-06,0.0006179673581515745,-0.007329726334354925,-45.42399563050528,50.98013118481631,5.0636901274280115,-1656326.3506156723,5094548.399763862,3594956.3490495216,-210.62723159783306,-4939.039596422505,6872.582557706459,0.994731745043011,-1.6701062007161685e-05,0.0001648258689671568,0.10251208688341985
0.555,4.932944338522467e-06,0.0006004009292959382,-0.007327724879126022,-45.42096260710368,50.962615919768616,5.065933403867502,-1656327.4030280574,5094523.704557661,3594990.7124190135,-210.33772244200551,-4939.04288371266,6872.765239110068,0.9947336230839686,-1.6866253267871516e-05,0.00016636195085837746,0.10249385906224721
0.56,1.427625297973872e-05,0.0005873016166936466,-0.007332218685229337,-45.42716722641194,50.95684277834106,5.058786725505504,-1656328.4539930313,5094499.009335114,3595025.076701779,-210.04826714092238,-4939.046135450132,6872.94786700648,0.9947355002834339,-1.701087700811424e-05,0.00016785600332253967,0.10247563618177154
0.5650000000000001,-2.09539426206784e-05,0.000586944692120202,-0.007322883566124667,-45.4194626117566,50.95046365609328,5.054263590675976,-1656329.5035106766,5094474.314096283,3595059.4418975837,-209.7587909517944,-4939.049396525084,6873.1304549800725,0.9947373783038288,-1.7128911425420486e-05,0.00016931987331441348,0.10245740208792341
0.5700000000000001,2.8935292941926897e-05,0.0006000541682802465,-0.007311660130701934,-45.4089243116104,50.93871605380278,5.051807495376634,-1656330.5515810554,5094449.618841083,3595093.8080062703,-209.46936063613356,-4939.052683813148,6873.313019650512,0.9947392535957755,-1.733446244249356e-05,0.0001707738320475266,0.10243919118937952
0.5750000000000001,-2.9902218816794465e-06,0.0005773535006033918,-0.007317009031032382,-45.41870010814846,50.915411109199155,5.063497616731585,-1656331.5982044602,5094424.923569417,3595128.175027688,-209.18000125965963,-4939.055982733257,6873.495547367189,0.9947411256749139,-1.7419299020033442e-05,0.00017227316901816974,0.10242100814544118
0.58,-1.5249118315480592e-06,0.0005884920378121338,-0.007343098876646034,-45.40841094572328,50.906958863091475,5.050270227006964,-1656332.6433811157,5094400.228281536,3595162.5429615905,-208.8906609655956,-4939.059169235622,6873.678013667734,0.9947429987972666,-1.757771938859539e-05,0.00017370787787007383,0.10240281177984448
0.585,8.383612834191845e-07,0.0005897421201763134,-0.007302966468126764,-45.40747012374263,50.898643450505595,5.054802765102987,-1656333.687111195,5094375.532977571,3595196.91180769,-208.60137069180337,-4939.0624168324675,6873.860426050732,0.9947448782578714,-1.77353586077938e-05,0.00017517066060120917,0.10238455049678824
0.59,-3.221123174407446e-06,0.0006197813689284115,-0.0073395198817836176,-45.40382390208417,50.87982856058715,5.056962766080253,-1656334.7293948994,5094350.837657438,3595231.281565822,-208.31211111735345,-4939.065636630402,6874.042826882606,0.9947467471101206,-1.7887423084185917e-05,0.00017663715874187256,0.10236638898187292
0.595,4.802126623219506e-07,0.0006093813823396158,-0.007281091850532747,-45.403655875471706,50.861614577812496,5.055743848266514,-1656335.770232453,5094326.142321297,3595265.6522358125,-208.0229103371507,-4939.068819465203,6874.225169155778,0.9947486249680042,-1.8057286617235747e-05,0.00017817731991387744,0.10234813652940607
0.6,9.563444755847854e-06,0.0006011158370742462,-0.007298516957574039,-45.39388312749728,50.85025754027301,5.0545090142979845,-1656336.8096240973,5094301.446969316,3595300.0238173427,-207.73374737964483,-4939.071972894526,6874.40744298452,0.994750487546084,-1.8215258322876095e-05,0.00017969256729474806,0.10233002934434257
0.605,1.0059708294729242e-05,0.0006217695490474167,-0.007305184841164156,-45.39282967992694,50.84041852658668,5.041105335958529,-1656337.8475700978,5094276.7516015535,3595334.3963101604,-207.44465275766646,-4939.0751323595205,6874.589684175778,0.994752354253402,-1.834853444272564e-05,0.000181189582152579,0.10231187878726909
0.61,1.8534352981989276e-05,0.0005885598630138687,-0.0072925042340474195,-45.38858385406206,50.81926372748279,5.053485068951068,-1656338.8840706523,5094252.056217894,3595368.769714015,-207.1555690637846,-4939.078331389496,6874.771857530777,0.9947542223230881,-1.8485862228674567e-05,0.00018273808689940168,0.10229371161245843
0.615,5.155878877503126e-06,0.0005738664286462857,-0.007303416630129013,-45.37995183007629,50.806037773427185,5.044670282336877,-1656339.9191259854,5094227.360818443,3595403.1440286385,-206.86656420099635,-4939.081449004386,6874.95399193252,0.9947560868319809,-1.8593615888773547e-05,0.00018420617073963583,0.10227557593623574
0.62,-4.079613963536771e-06,0.0006066905258812341,-0.007312057307147051,-45.37157282122275,50.78750707700057,5.038790902438984,-1656340.9527364364,5094202.665403331,3595437.5192537783,-206.57761622911858,-4939.084595910396,6875.1360639554805,0.9947579538039646,-1.8730888415685435e-05,0.00018563429232486796,0.10225741309466477
0.625,7.738792878962585e-06,0.0005823480339524164,-0.0072961542721682714,-45.378676427161814,50.7842720372383,5.035532954843587,-1656341.9849023207,5094177.969972471,3595471.8953890884,-206.2887373930512,-4939.087747908614,6875.3180600562855,0.9947598226350284,-1.8899523914393948e-05,0.00018714168252859898,0.10223922873303412
0.63,1.2903057583026866e-05,0.0005815857644845509,-0.007307189375634293,-45.375185709145065,50.76258010164474,5.044970487107023,-1656343.015623749,5094153.274525857,3595506.27243433,-205.9998339758028,-4939.090897850035,6875.5000366267295,0.9947616870793652,-1.9032538881723424e-05,0.00018859155685053622,0.10222108388195851
0.635,1.4537071569739877e-05,0.00061976816257944,-0.007291592877591428,-45.37004893856738,50.74963814178007,5.041091608248845,-1656344.0449008418,5094128.579063674,3595540.6503893295,-205.71100316477603,-4939.093975205376,6875.681963153339,0.9947635540107815,-1.9152521213788267e-05,0.00019004085463485138,0.10220291155096095
0.64,-1.0398519010545776e-06,0.0006030232351887886,-0.007298779089330523,-45.36271599470721,50.73113164245807,5.040954796827281,-1656345.0727338982,5094103.883586097,3595575.029253836,-205.42221939470798,-4939.097055879423,6875.863839310417,0.9947654166056066,-1.9278188366238363e-05,0.00019158552674976913,0.10218477797016323
0.645,2.8481012140979914e-06,0.0005949549930017792,-0.0072727716375404925,-45.36990498701299,50.728340078259905,5.041395346862674,-1656346.0991232153,5094079.188093164,3595609.409027571,-205.13350739215048,-4939.100116843043,6876.045654831526,0.9947672807102972,-1.9438319724359603e-05,0.00019308457595632747,0.10216662649191811
0.65,1.56826871868555e-05,0.0005913097245102887,-0.007297427435364478,-45.35605760459398,50.70453078413041,5.037553711717615,-1656347.1240689196,5094054.492584967,3595643.7897103652,-204.8447743449029,-4939.103161994243,6876.227462876723,0.9947691378440758,-1.958670873780836e-05,0.00019456455435153163,0.10214853965646895
0.655,6.926762459688527e-06,0.000601943930795913,-0.007296021634521662,-45.35625079251528,50.697837256941334,5.033507190282934,-1656348.147571223,5094029.797061554,3595678.171301982,-204.55614707226738,-4939.106203290271,6876.409183835288,0.9947710009444822,-1.9702260215391425e-05,0.00019603874355850412,0.10213039146378071
0.66,-6.029490296364865e-07,0.0005971093247394013,-0.007294584580150014,-45.3507881062689,50.67551348134586,5.024968980048402,-1656349.1696304192,5094005.101522916,3595712.5538021284,-204.26753140738833,-4939.10925188868,6876.590874819138,0.99477286334707,-1.984230153653727e-05,0.00019753714365407493,0.10211224673677208
0.665,-1.516265003088787e-06,0.0005986917666669387,-0.0072791970124735025,-45.35272947452174,50.66337944964229,5.034055902384529,-1656350.1902466859,5093980.405969033,3595746.937210477,-203.97897524837808,-4939.112301322407,6876.772464585077,0.9947747250516897,-1.9999833841785915e-05,0.00019902159822811293,0.10209410555338304
0.67,1.3874678605112615e-05,0.0005828179229115705,-0.007308880663469595,-45.34393501348578,50.650322831049195,5.028216885119455,-1656351.209420248,5093955.710400054,3595781.3215267323,-203.69044955735228,-4939.115290249221,6876.954037537651,0.9947765824956701,-2.016003373830433e-05,0.0002005097558276696,0.10207600260416794
0.675,1.597365921823294e-05,0.0005956910831579229,-0.007271057197416844,-45.34212133484688,50.619412766820496,5.024539296579286,-1656352.2271513343,5093931.014816085,3595815.7067507193,-203.4019849439696,-4939.118297425808,6877.135557203184,0.9947784471904004,-2.027792128573038e-05,0.00020196236215895262,0.10205782579237055
0.68,-6.496099469694069e-09,0.0005977031960372017,-0.007303946773212968,-45.32570549622631,50.61145701742849,5.023035151462704,-1656353.2434402597,5093906.319217194,3595850.0928819906,-203.11358526548105,-4939.121259131794,6877.316951322504,0.9947803018957095,-2.0393854194262475e-05,0.0002034475207395625,0.10203974300966268
0.685,3.4699408142966526e-06,0.0006015082453772017,-0.007284806129470763,-45.32679191378741,50.59274977229303,5.017064277062238,-1656354.2582874156,5093881.623603422,3595884.4799201973,-202.82527712203105,-4939.124249308392,6877.498331377421,0.9947821646568835,-2.0550058972267057e-05,0.0002049336050736153,0.10202157840612797
0.6900000000000001,4.814053055420552e-06,0.0005763074103026175,-0.007277910606842721,-45.32522115227299,50.58378319312259,5.025368080775112,-1656355.2716930981,5093856.927974736,3595918.867865092,-202.53699585877663,-4939.127225029654,6877.679626555395,0.9947840222013397,-2.069857868623932e-05,0.00020643003998941108,0.10200346136838771
0.6950000000000001,-1.04895080795049e-05,0.0005873862737855026,-0.007292526411138648,-45.31928329609474,50.56532099631467,5.022805906251379,-1656356.2836574728,5093832.23233128,3595953.256716455,-202.24875403448857,-4939.13015776973,6877.860918523614,0.9947858776686601,-2.083732565023327e-05,0.00020786414448323458,0.1019853614461257
0.7000000000000001,-5.284452828301935e-06,0.0005892444663912405,-0.007285201901291863,-45.31801431758733,50.53972512556258,5.0205878320080375,-1656357.2941807942,5093807.536673191,3595987.6464741062,-201.96057445595727,-4939.133077590418,6878.042141998341,0.9947877365238301,-2.1016964323499796e-05,0.0002093218990405785,0.101967225148204
0.705,-4.372916616869044e-07,0.0006141550682399392,-0.007276545616329396,-45.308774337958106,50.529998045847826,5.016164985110867,-1656358.303263354,5093782.841000604,3596022.037137624,-201.6724495669899,-4939.135957224831,6878.223265076811,0.9947895931786825,-2.1184128030821702e-05,0.0002107856020434545,0.10194910702921368
0.71,-7.31304579669479e-06,0.0005797297788057543,-0.007256763857569124,-45.30161063544218,50.52691843550618,5.019725503936211,-1656359.3109054368,5093758.145313566,3596056.4287066683,-201.38438351220108,-4939.138858063247,6878.404352691951,0.994791447282568,-2.1345581439849535e-05,0.00021231249286253085,0.10193101040029678
0.715,2.6189118730018396e-06,0.0005940164869763728,-0.007273846986266023,-45.302682835668705,50.50595845867172,5.013738299802953,-1656360.3171073087,5093733.449612022,3596090.821181181,-201.09636519897472,-4939.141759563485,6878.585452413002,0.9947932960328962,-2.151535168417956e-05,0.00021375201757653893,0.1019129629398103
0.72,-1.187983070419643e-05,0.0005767578032683305,-0.007263037115641548,-45.29430953771627,50.481320867356196,5.009977344888255,-1656361.321869166,5093708.753896019,3596125.214560957,-200.80837781348083,-4939.14464149942,6878.766457999472,0.994795148798276,-2.166407043988981e-05,0.0002152296025925529,0.10189487295395218
0.725,9.132081877826393e-06,0.0005758745343202205,-0.0072806697847294715,-45.29239844318588,50.46789669449746,5.012343888527444,-1656362.3251912936,5093684.058165651,3596159.608845524,-200.52047320719154,-4939.147506063514,6878.947368708388,0.994796998487879,-2.1844445140362328e-05,0.00021666057261660837,0.1018768098269844
0.73,-1.1671881298458963e-05,0.0005956839797774823,-0.007274327260476129,-45.294429853220095,50.457190387387016,5.000206899095183,-1656363.3270740015,5093659.362421031,3596194.00403455,-200.23260996228595,-4939.150341533887,6879.1282417327975,0.9947988523391622,-2.1972347953861666e-05,0.00021809469648897462,0.10185870280248623
0.735,-1.7542486192445627e-05,0.0006026549721984045,-0.007258306913233866,-45.287709402426806,50.436523641918726,5.007085840334641,-1656364.3275173937,5093634.66666217,3596228.400127765,-199.94474690374034,-4939.153203199198,6879.309044271662,0.994800704231973,-2.215703110962907e-05,0.00021957278900934136,0.10184061152814755
0.74,-7.696045158811786e-06,0.0005969005545399848,-0.007250706097102437,-45.28349259797395,50.42819486432946,5.017787991755677,-1656365.326521675,5093609.970889133,3596262.797124867,-199.6569656610257,-4939.156011261466,6879.489796401229,0.9948025517113128,-2.2358080493995728e-05,0.00022106672454960536,0.10182256006544134
0.745,-7.490196388986825e-06,0.0005909647813850259,-0.007272322407038906,-45.26795895242969,50.404318035721545,5.002322337833007,-1656366.3240871832,5093585.275102171,3596297.1950257495,-199.3692375789614,-4939.158773756248,6879.670556775209,0.9948043969300944,-2.2533172684732696e-05,0.00022254885564266649,0.10180452746717225
0.75,-7.83195664251879e-06,0.0005913709472985173,-0.007242749519125799,-45.264625424400506,50.382129826742336,5.010036939754683,-1656367.3202142972,5093560.579301283,3596331.593830138,-199.08160792322653,-4939.161581423101,6879.851198585089,0.9948062473237436,-2.270625422509613e-05,0.00022401627550194163,0.10178644107534734
0.755,3.3062496873505545e-06,0.0005882167822685126,-0.007262478011031173,-45.26197654202243,50.36992963398807,5.001372476826159,-1656368.3149034386,5093535.883486525,3596365.9935375927,-198.79404871431433,-4939.164321738522,6880.031783293223,0.9948080898621845,-2.2880272514461295e-05,0.0002254846201402771,0.10176842819819439
0.76,2.458676731191489e-05,0.0006395085044258264,-0.007259653345398155,-45.2611765775145,50.35058234583069,5.001721421414333,-1656369.308154855,5093511.187658019,3596400.3941478133,-198.50651777506198,-4939.167080702953,6880.212305033048,0.9948099370931753,-2.3025798487005378e-05,0.0002269479528976628,0.10175036621610677
0.765,2.6107260849931474e-05,0.0006017141154445539,-0.007262464571162861,-45.259043455690765,50.33133816788391,5.0018597080397535,-1656370.2999687276,5093486.491815811,3596434.7956604725,-198.2190313250254,-4939.169802628166,6880.392758472449,0.994811783247605,-2.3131445052034216e-05,0.00022854426278071194,0.10173231121023728
0.77,-9.993389567361973e-06,0.0005821625550001773,-0.007230514798932959,-45.23663148733182,50.323168351844544,4.995838257319483,-1656371.2903452932,5093461.795960076,3596469.19807523,-197.93159490247092,-4939.172491246499,6880.573144599249,0.994813629808488,-2.3223699427053673e-05,0.00023004696337488884,0.10171424918031519
0.775,1.5469187893312424e-05,0.0005778425160955327,-0.007253407813729396,-45.238175466921795,50.28917215486061,4.9984441926189795,-1656372.279284959,5093437.100090753,3596503.6013918617,-197.644271437096,-4939.175237875501,6880.7535081066535,0.994815467925473,-2.3400747286489063e-05,0.00023149186047463004,0.10169626659885692
0.78,-4.996027394373543e-06,0.0005895581592494412,-0.007250530310971173,-45.23713337196545,50.282270953337914,4.987013616531563,-1656373.2667881658,5093412.404207908,3596538.005610002,-197.35701129743433,-4939.177900165917,6880.933748139304,0.9948173115386015,-2.35133836427274e-05,0.00023293248567757272,0.1016782270335536
0.785,-1.2658423813926893e-05,0.0006034781753059009,-0.0072570781859558646,-45.222496396594735,50.26808955867937,4.994564168713334,-1656374.2528550918,5093387.708311656,3596572.410729217,-197.06975908556907,-4939.180600835207,6881.113937639504,0.9948191540831464,-2.3679894256215822e-05,0.00023439704611715161,0.10166019460231533
0.79,-6.28292658161396e-06,0.0006158384554180422,-0.007250094926549485,-45.21866178516585,50.24405820527791,4.9920236489354854,-1656375.2374860228,5093363.012401963,3596606.8167493395,-196.78261323790682,-4939.183276304368,6881.294111502817,0.9948209979538559,-2.386900322453159e-05,0.00023589427843620825,0.10164214585620635
0.795,1.4087183755235968e-06,0.0005848261998628811,-0.007231074350943016,-45.20528208726779,50.234696876988814,4.9900078763336335,-1656376.2206813812,5093338.316478968,3596641.2236700994,-196.49553020630472,-4939.185921596488,6881.474192489772,0.9948228397137234,-2.4045392683851362e-05,0.0002374238718073915,0.1016241144396723
0.8,-5.566825274785741e-06,0.0005765127550457444,-0.007232902063342077,-45.209648804680796,50.2105761169466,4.974001124657688,-1656377.202441524,5093313.620542695,3596675.6314912047,-196.2085269197348,-4939.188587828812,6881.654249610268,0.9948246763318784,-2.4194762302681335e-05,0.00023887829113481687,0.10160613029216706
0.805,-1.1370512550453653e-05,0.0006095071111134077,-0.007255778004631914,-45.20490893551498,50.19050956779865,4.980607090202247,-1656378.1827666727,5093288.924593075,3596710.0402122512,-195.92153254361605,-4939.191259885686,6881.834168933421,0.994826513091553,-2.4359369870046725e-05,0.00024031026232798543,0.1015881415702693
0.81,-4.0681692229363296e-07,0.0005993815329350094,-0.0072354873686956865,-45.191203253168645,50.18427098158244,4.977088430968878,-1656379.161657028,5093264.228630234,3596744.449832768,-195.63460956663457,-4939.193876640141,6882.014037760943,0.9948283553123674,-2.454680491589739e-05,0.0002418228172346723,0.10157009592232183
0.8150000000000001,-1.1203322743934594e-05,0.0006047151594050558,-0.007240381932947343,-45.192007164077914,50.153073894348466,4.981690197935624,-1656380.1391129524,5093239.532654222,3596778.860352591,-195.34776021467312,-4939.196528091032,6882.193891456915,0.9948301920589755,-2.4704389058696852e-05,0.00024331297423496728,0.10155210069905835
0.8200000000000001,-1.5766075120594168e-06,0.0005799888583977772,-0.007222098468830547,-45.1870881478868,50.13748442550088,4.978656494036024,-1656381.1151347903,5093214.836665164,3596813.271771418,-195.06097496076788,-4939.199095219548,6882.373639244769,0.9948320297163211,-2.4890181997947987e-05,0.00024481365496474816,0.10153409327540144
0.8250000000000001,-7.835898821427089e-06,0.0005786400040009936,-0.007239684659046458,-45.16495710347743,50.12600748825026,4.976079214401162,-1656382.0897228315,5093190.140663287,3596847.6840888355,-194.77424144951746,-4939.201655647362,6882.553327920657,0.9948338624210995,-2.5045744920904246e-05,0.000246255284060643,0.1015161312864245
0.8300000000000001,-1.586595425554328e-05,0.0006002673827061206,-0.007210935554107243,-45.179170033896725,50.10216270081932,4.972500317802784,-1656383.06287751,5093165.444648516,3596882.09730463,-194.48762995935314,-4939.20425231525,6882.732989810193,0.9948356992623361,-2.521654372354856e-05,0.0002476919687117257,0.10149812552965459
0.835,-2.5658138373930713e-06,0.00057620955315256,-0.00722572443863129,-45.164304072264784,50.091333730218466,4.973705564396921,-1656384.0345990814,5093140.74862092,3596916.5114184585,-194.20099865644673,-4939.206786255172,6882.912541535706,0.994837528467963,-2.5412784026197013e-05,0.00024918040672594,0.10148019124474573
0.84,1.4196393797899e-05,0.0005896241273820157,-0.0072332959007569645,-45.15565996891614,50.059938692435665,4.969706294385996,-1656385.0048877294,5093116.052580634,3596950.9264299963,-193.91446048324894,-4939.209328081802,6883.092073594191,0.9948393611152448,-2.5569851353299814e-05,0.000250612383891652,0.10146222013846985
0.845,-4.980639114518861e-06,0.000562963639336599,-0.007239538459072965,-45.15064897772764,50.04816997860438,4.974794790995149,-1656385.9737439256,5093091.356527718,3596985.342338887,-193.62801802393028,-4939.211838410928,6883.271482742485,0.9948411953486475,-2.5688636837097574e-05,0.00025208197568411036,0.10144423015650364
0.85,1.2139994133324897e-06,0.000580024796321033,-0.007224624561677291,-45.14616648575452,50.025746831090785,4.964312286749196,-1656386.9411680487,5093066.6604623245,3597019.7591447714,-193.3416312173163,-4939.214318937078,6883.450871061783,0.9948430308531347,-2.5848360120696264e-05,0.0002534803961147958,0.1014262246290376
0.855,5.694788764954327e-06,0.0005923017267408014,-0.007230844983989695,-45.135421328988926,50.011996391898506,4.968098392378264,-1656387.9071603692,5093041.964384514,3597054.1768473275,-193.05529693803905,-4939.216805565228,6883.63015128786,0.9948448622383201,-2.599699333431728e-05,0.0002549228211056481,0.10140825615564797
0.86,1.4586851739328798e-05,0.0005787161188043874,-0.007211434405831555,-45.13019340338308,49.99274407103028,4.960537581324016,-1656388.8717212263,5093017.268294313,3597088.595446215,-192.76904589984025,-4939.219274752703,6883.809403755975,0.9948466948660235,-2.613759873320618e-05,0.0002563969156839232,0.10139027217438916
0.865,1.0064946231798044e-05,0.0006047447042140051,-0.007204256598248243,-45.121277823114845,49.97371465331677,4.956813136929483,-1656389.8348509627,5092992.572191757,3597123.014941149,-192.482848752816,-4939.221747273826,6883.988569805803,0.9948485222565476,-2.6252632461661482e-05,0.00025783947637527706,0.10137233643143115
0.87,-6.0806243306984725e-06,0.0005827031286043722,-0.007216459082003988,-45.12123939613828,49.960730660790404,4.965124590845517,-1656390.7965499011,5092967.876076849,3597157.435331734,-192.19672652647253,-4939.224216064076,6884.167664119769,0.9948503474857061,-2.638550452854957e-05,0.000259345627712443,0.10135441850861947
0.875,-1.1500230623548513e-05,0.0005998079575827076,-0.007227996717907615,-45.10327778515158,49.93836365675013,4.953167602473489,-1656391.7568183274,5092943.179949736,3597191.8566177376,-191.9106439582599,-4939.226629307235,6884.34673749383,0.9948521754945768,-2.655295553697809e-05,0.0002607928669246716,0.10133647021546009
0.88,-2.0154677892093954e-05,0.0006107411161249344,-0.007221818243406233,-45.10504601348733,49.923948549734206,4.954136582937877,-1656392.715656618,5092918.483810457,3597226.278798857,-191.6246723102199,-4939.22908218777,6884.5257100962535,0.9948540060883938,-2.6738226684257046e-05,0.00026228127421678524,0.10131849319583576
0.885,2.1342340916526427e-05,0.0005879548604118578,-0.007193504632581988,-45.098574066143584,49.89750440137537,4.957430875017219,-1656393.6730651122,5092893.787658998,3597260.7018747167,-191.33872538105192,-4939.231501516866,6884.704633914246,0.9948558347826325,-2.694778787821588e-05,0.0002637946819382825,0.10130053151456875
0.89,1.3993588171994138e-05,0.0006065767404384272,-0.007220004901880726,-45.092665693758434,49.879807115583496,4.957666485267852,-1656394.6290440876,5092869.091495575,3597295.1258449852,-191.0528647960142,-4939.233867441687,6884.883473477964,0.9948576559989764,-2.704835086318495e-05,0.00026526192805753775,0.10128264019425318
0.895,-5.075175684457938e-06,0.0005733001008567034,-0.00719383230123944,-45.085583307186404,49.86043186946077,4.955273678840299,-1656395.5835939203,5092844.39532038,3597329.550709307,-190.7670682975667,-4939.236210861314,6885.062255251966,0.9948594835873568,-2.7171924003353246e-05,0.00026677362684520377,0.10126468293445892
0.9,1.9892764737776822e-05,0.0005767912668082112,-0.007197730039880997,-45.06450771595328,49.84477432444683,4.951994890185212,-1656396.5367149431,5092819.6991335,3597363.9764673603,-190.4813408223905,-4939.238540710973,6885.240966086472,0.994861304245613,-2.733448215975622e-05,0.0002681977358916038,0.10124679075169919
0.905,4.590893512377496e-06,0.00056526847241518,-0.007184848624196694,-45.06995910614534,49.826314022914666,4.951764847411097,-1656397.4884076382,5092795.002934905,3597398.403118851,-190.1957372139709,-4939.240897728489,6885.419630196576,0.9948631255658037,-2.74358274996111e-05,0.00026963684745867546,0.10122888882471166
0.91,1.4462894373603113e-05,0.0005800130610623697,-0.007193844508007622,-45.048948558674674,49.804039535196715,4.942793676114548,-1656398.43867235,5092770.306724638,3597432.830663483,-189.9101475292309,-4939.243209029242,6885.598222634293,0.9948649433091983,-2.757230621668177e-05,0.0002710434283349134,0.10121101891401776
0.915,-5.815437605839706e-06,0.0006120911363861075,-0.007208715373898516,-45.054915992141524,49.78426347612409,4.944143638404976,-1656399.387509434,5092745.610502728,3597467.2591008535,-189.62468603821134,-4939.245554601765,6885.776725487699,0.9948667629960655,-2.7687968538647742e-05,0.0002724891785769775,0.10119312658849157
0.92,1.6183164298009646e-05,0.0005994231392973514,-0.007183983912358229,-45.040164446211804,49.766399211076504,4.9364689308698395,-1656400.3349192503,5092720.914269232,3597501.6884305556,-189.33924054334582,-4939.247844147091,6885.955155305762,0.994868586097087,-2.7862191780017626e-05,0.00027400958115861724,0.10117519725521029
0.925,-1.7921645851060634e-05,0.0005844230453945445,-0.00717988932822713,-45.0399387449036,49.74407970030149,4.929400206682614,-1656401.2809020742,5092696.218024221,3597536.1186522236,-189.05388891267188,-4939.250160118741,6886.133511897675,0.9948704026284981,-2.797847955798019e-05,0.00027550404217495904,0.10115732938614751
0.93,-2.7378035038063266e-06,0.000572714338588153,-0.00719151712173086,-45.02621383128644,49.726557279466746,4.936600781501219,-1656402.2254582334,5092671.52176767,3597570.54976542,-188.7685748158769,-4939.2524600763945,6886.311766742516,0.9948722178094587,-2.8175795748582316e-05,0.00027695257063584783,0.10113947169274289
0.935,-1.947567484967302e-05,0.000579172588874767,-0.007206368739631418,-45.0168626927045,49.7053314870888,4.931015283805845,-1656403.1685880914,5092646.825499704,3597604.981769813,-188.48336841031593,-4939.254726510271,6886.489990424886,0.9948740356165254,-2.833239449250241e-05,0.00027837581573444687,0.10112158503637729
0.9400000000000001,-6.610177679816428e-06,0.0005836202384840739,-0.0071860688505577955,-45.008696448109454,49.68461995569109,4.93048066768482,-1656404.1102921134,5092622.129220407,3597639.4146651104,-188.19824035941764,-4939.256992349458,6886.668128520138,0.994875856848151,-2.8532266418348985e-05,0.00027981089115395127,0.10110366141951664
0.9450000000000001,4.167263074136878e-06,0.0005767601835201196,-0.007160681412409975,-44.99964333724729,49.65776335359831,4.931274655151108,-1656405.0505706915,5092597.432929835,3597673.8484509224,-187.91319090760345,-4939.259236460152,6886.846196261127,0.9948776726224953,-2.870124938745549e-05,0.00028126028195051835,0.1010857882500758
0.9500000000000001,-6.0879239166235184e-06,0.0005762889165386362,-0.007163360644933492,-44.99545643219684,49.63822465917155,4.922703027716341,-1656405.9894242608,5092572.73662814,3597708.283126846,-187.6282368015438,-4939.2614412857865,6887.024173133138,0.9948794816646084,-2.88416752729864e-05,0.00028269533580410996,0.10106797818431469
0.9550000000000001,-2.1748225108064526e-05,0.0005739361616381596,-0.007180988396146769,-44.98819121644999,49.622230830039676,4.922028367922467,-1656406.9268531804,5092548.040315411,3597742.718692425,-187.34333098676248,-4939.263650510551,6887.202058580348,0.9948812910622603,-2.9007490655517177e-05,0.0002841266260611374,0.10105016142944014
0.96,-5.974374485230554e-06,0.0005746120235445468,-0.007197899175045835,-44.988245122189475,49.60777115081954,4.9275048763024065,-1656407.8628577353,5092523.343991666,3597777.1551473006,-187.05849100405834,-4939.265847465949,6887.379891634808,0.994883104591752,-2.921167453595688e-05,0.00028554810697839733,0.1010323008093635
0.965,-1.9633244441102616e-05,0.0005718459843310549,-0.007186074650613113,-44.976376374662955,49.57187047020101,4.923272395302184,-1656408.7974381857,5092498.647657056,3597811.5924912537,-186.7736891681045,-4939.26799645503,6887.557689645579,0.9948849220698002,-2.937680834501164e-05,0.0002869752517478728,0.10101439808450952
0.97,-6.3862991615794095e-06,0.0005859694298764996,-0.007186298840274226,-44.965293814790115,49.55567073655334,4.921634981467459,-1656409.7305949214,5092473.951311788,3597846.030723849,-186.48900513034266,-4939.270110993407,6887.735348340809,0.9948867362390412,-2.9575207646111e-05,0.0002883920682093163,0.10099652474689726
0.975,-3.152395025090734e-05,0.0005810196546585713,-0.007158131318553493,-44.95642784764403,49.54263759954614,4.934692830038034,-1656410.662328442,5092449.254955949,3597880.4698446053,-186.2044031711162,-4939.272224440353,6887.912954292759,0.9948885501324918,-2.9744225121147257e-05,0.00028984735737069606,0.10097865080827254
0.98,8.649237405930546e-06,0.0005656329060882051,-0.00718092987633782,-44.93714264350933,49.509468842629396,4.920562148885608,-1656411.5926391664,5092424.558589684,3597914.90985339,-185.9198865147177,-4939.274281572167,6888.090559624612,0.9948903565948816,-2.997449552490656e-05,0.0002912839914308712,0.10096084691441272
0.985,1.3066459721357334e-05,0.000582328703577624,-0.007173423312327345,-44.93433125913256,49.49771658254577,4.908655063832159,-1656412.5215276408,5092399.862213069,3597949.350749827,-185.6355032276647,-4939.276364698667,6888.268015146579,0.9948921685042204,-3.01009790807158e-05,0.00029269249316662337,0.10094298625464539
0.99,2.120809507236845e-06,0.0005902193190375257,-0.007174804404171319,-44.924491629387425,49.477379278458486,4.916706788055471,-1656413.4489942582,5092375.165825956,3597983.792533366,-185.35114372818714,-4939.27848041398,6888.44540038549,0.9948939781849828,-3.0220683793404368e-05,0.0002941436363868772,0.10092514422823723
0.995,5.820857903369064e-06,0.0005752424138977841,-0.007162521159202735,-44.91334231442042,49.45315336886613,4.910847618625242,-1656414.375039319,5092350.469428393,3598018.235203722,-185.0668806150377,-4939.280544737777,6888.622742135853,0.9948957878854132,-3.0369604819376382e-05,0.0002956116434937322,0.10090729874150016
1.0,5.2974968506442e-06,0.0005519086897788808,-0.007154539535165707,-44.910790205139065,49.43057632107038,4.910629368111765,-1656415.2996632927,5092325.773020515,3598052.6787605444,-184.78270890464822,-4939.282606257284,6888.799986789254,0.9948975941768615,-3.0505535653843438e-05,0.0002970433336927331,0.10088948377191317
1.0050000000000001,2.0115962725250166e-05,0.0005745917344255523,-0.007165784968800582,-44.89522842475513,49.40962349287122,4.905244714074502,-1656416.2228665508,5092301.076602427,3598087.1232033856,-184.49859429646975,-4939.284628893358,6888.977149649892,0.9948993981518226,-3.0636876959439334e-05,0.00029841685573568167,0.10087168862422762
1.01,7.023422592450181e-06,0.000603470994711668,-0.007170884073076389,-44.89080008912042,49.395935616490654,4.90119776157874,-1656417.1446495005,5092276.380174196,3598121.568531844,-184.21458555169133,-4939.286663409098,6889.154233641271,0.9949012046260957,-3.0737089630312464e-05,0.00029985053209895956,0.10085386546103964
1.0150000000000001,-4.603991104454527e-06,0.0005722072109379898,-0.007175243090771634,-44.879197383863236,49.36330293592403,4.900925161280878,-1656418.0650125179,5092251.6837357925,3598156.014745585,-183.93062139637928,-4939.2886983574945,6889.331262793313,0.9949030120416958,-3.087715203613848e-05,0.00030135273691736595,0.10083602959007572
1.02,8.503305110624786e-06,0.0005816459878246116,-0.007154128505999586,-44.871522920210275,49.353894154803676,4.902237269005036,-1656418.9839560038,5092226.987287321,3598190.4618441835,-183.64677296638962,-4939.290690081004,6889.508176697175,0.9949048202567256,-3.103825679867528e-05,0.00030277424906454466,0.1008181828556406
1.025,-3.0369992353602757e-05,0.0005734896631009173,-0.007145950378854499,-44.86407863014709,49.328922219722614,4.89169364000256,-1656419.9014803933,5092202.290828902,3598224.9098273027,-183.3629828453468,-4939.292677620617,6889.68507080696,0.994906622822527,-3.116912328917996e-05,0.00030422254309837274,0.10080038859550183
1.03,-1.8779632617221003e-06,0.0005480120061081185,-0.007132215955420677,-44.85048934592244,49.306727386161675,4.889306237766274,-1656420.8175860073,5092177.594360529,3598259.358694601,-183.0792627913155,-4939.29467146306,6889.861848563387,0.9949084230106373,-3.139461640071237e-05,0.0003056407546091871,0.10078261467432793
1.035,3.006935572597329e-06,0.0005780395230002193,-0.007144712393337693,-44.84232096366918,49.286174157999795,4.887026959387228,-1656421.7322732788,5092152.8978822045,3598293.808445595,-182.79564580337635,-4939.296658465392,6890.038549109124,0.9949102194410954,-3.154281234614063e-05,0.00030700277601413214,0.1007648748623149
1.04,-1.6491765527116125e-07,0.0005808418705207639,-0.007132495395599198,-44.833443604784314,49.274564777102775,4.881428162819485,-1656422.6455426551,5092128.201393981,3598328.259079905,-182.51210473988104,-4939.29863083316,6890.215174896322,0.9949120186780601,-3.1686432080585024e-05,0.00030844071360935704,0.10074710392980837
1.045,1.0891216562293175e-05,0.0005623961776197402,-0.007168625846691491,-44.821823524948044,49.24302203810236,4.883463546664893,-1656423.557394473,5092103.504895845,3598362.7105972264,-182.22862243959742,-4939.300623609786,6890.391753583531,0.9949138145165795,-3.183863749256696e-05,0.0003098848234089833,0.10072936335432123
1.05,1.0578844665549956e-05,0.0005549073785390848,-0.007129649630969473,-44.823211843554866,49.215467595900805,4.882418612182605,-1656424.4678291713,5092078.80838787,3598397.1629971797,-181.94525686414698,-4939.30256655794,6890.56822782555,0.9949156191487871,-3.195872607607898e-05,0.00031128583473977666,0.10071153287262906
1.055,2.3760099023928176e-05,0.0005677009393512917,-0.007127319919596058,-44.8080942279379,49.19581743992257,4.879037993201313,-1656425.37684716,5092054.111870318,3598431.6162792356,-181.6619385552455,-4939.304454351721,6890.744594451162,0.9949174136536534,-3.2077675755568274e-05,0.00031266814362803605,0.10069379930452482
1.06,1.384089088843666e-06,0.000578763140832352,-0.0071345653785342454,-44.7938390296099,49.176259039955525,4.885480932063407,-1656426.2844488171,5092029.415343312,3598466.070442953,-181.37872428145948,-4939.3063481254,6890.920892658999,0.9949192072451648,-3.2167058535626235e-05,0.0003140855921207426,0.10067607148758884
1.065,2.3121341593043082e-06,0.0005722492135320594,-0.007144723212015815,-44.794497763754244,49.155972018563084,4.869515145629443,-1656427.1906346844,5092004.7188069215,3598500.525488059,-181.09562262492,-4939.30820757621,6891.097149585983,0.9949210023315562,-3.231488704730864e-05,0.00031552492310019803,0.10065832563351429
1.07,-2.6100666862718513e-06,0.0005554494923739087,-0.0071224678472171605,-44.78072385546021,49.13266471864042,4.874673028085871,-1656428.095405089,5091980.022261181,3598534.981414151,-180.8125392362016,-4939.31008880378,6891.273287247582,0.9949227996603047,-3.245877602994335e-05,0.0003169482845887995,0.10064055448135205
1.075,6.431416306792404e-06,0.0005710223367066168,-0.007123720690388577,-44.77150485390635,49.11163965808199,4.87135097308808,-1656428.9987603656,5091955.325706131,3598569.4382207803,-180.5295713967759,-4939.311931207124,6891.4493644113845,0.9949245910840703,-3.261066355908037e-05,0.00031832862328536006,0.10062283865816891
1.08,-7.937308618288462e-06,0.0005648973059264215,-0.007126047870451153,-44.76647987702878,49.086467466035366,4.865437542391024,-1656429.9007010031,5091930.629141892,3598603.895907598,-180.24668365633886,-4939.313764104724,6891.625362815423,0.9949263824938621,-3.27439805498794e-05,0.0003197499707418694,0.10060511967820095
1.085,-1.6682151961341795e-05,0.0005813437675836211,-0.007126511165886556,-44.74866404395171,49.055301711266765,4.865984230392688,-1656430.8012273656,5091905.932568533,3598638.3544741427,-179.96386134032008,-4939.315579569879,6891.801254909991,0.9949281741750182,-3.291149842568502e-05,0.0003211524691007584,0.10058739488966596
1.09,3.89762128063489e-06,0.0005856822657399383,-0.0071219488264188235,-44.74458037004369,49.035764088401045,4.862831139692155,-1656431.700339971,5091881.235986173,3598672.813919892,-179.68118087825746,-4939.317364602831,6891.977044995267,0.9949299656409211,-3.310490365733318e-05,0.00032259367588657596,0.10056966892230164
1.095,4.9346684382480185e-06,0.0005882006110618684,-0.007136061201446807,-44.733427413945655,49.026356784568115,4.864987516491593,-1656432.598039311,5091856.539394931,3598707.274244401,-179.39855501377127,-4939.319132341987,6892.152758582659,0.9949317556402192,-3.324820741955721e-05,0.00032405084845397325,0.10055195425388509
1.1,-1.1473559897299418e-06,0.0005858275340902305,-0.007111994196016434,-44.714146194483675,48.999036858024745,4.860483007447787,-1656433.4943257086,5091831.8427948505,3598741.735447441,-179.1160040583474,-4939.320899572553,6892.328457520528,0.9949335488669561,-3.338957618745041e-05,0.0003255145443918372,0.10053420445013787
1.105,1.0790830809432647e-05,0.0005935374008751583,-0.007123730863711616,-44.70944101009625,48.97677783076229,4.857088665375316,-1656434.389199689,5091807.146185932,3598776.1975287283,-178.83358813323218,-4939.322668070583,6892.504057170601,0.9949353357284878,-3.3545456946135374e-05,0.00032697081097126594,0.1005165144821101
1.11,-9.056729649515933e-06,0.0005672806879325914,-0.007136249674969196,-44.696880272028764,48.94778477511986,4.854165207439595,-1656435.2826617449,5091782.449568223,3598810.660487794,-178.55123415853544,-4939.3244152032,6892.679569094158,0.994937125216832,-3.367359040060058e-05,0.0003284492534717275,0.10049879527856657
1.115,3.219576247114787e-06,0.0005953593068721936,-0.007127251188174907,-44.69223501526183,48.92499268567257,4.865866662237795,-1656436.1747123054,5091757.752941837,3598845.124324151,-178.26899008938145,-4939.3261397299775,6892.854973777511,0.994938917552161,-3.3844504890603064e-05,0.0003298573987272394,0.10048104492281229
1.12,9.683398072734667e-06,0.0005864839968661419,-0.007122852932173083,-44.68008077052928,48.904336410406714,4.847366803199111,-1656437.0653518508,5091733.056307032,3598879.5890374123,-177.98682803510198,-4939.327782091814,6893.0303307383965,0.9949407072865497,-3.3991929935411486e-05,0.00033133846975551214,0.10046331690476652
1.125,1.2879397409198816e-05,0.0005954522933275342,-0.007101126245578139,-44.6652856804274,48.88224455718643,4.854771143542552,-1656437.9545807685,5091708.359663873,3598914.054627165,-177.70473906754484,-4939.329481545762,6893.205570413691,0.9949424956063245,-3.412104441972721e-05,0.00033279908847611,0.10044559979003519
1.1300000000000001,1.235280756042071e-05,0.0005630865485270247,-0.007077960631485598,-44.659294458289146,48.856303231618114,4.836571465063379,-1656438.8423995434,5091683.663012324,3598948.521092995,-177.42277086246648,-4939.331138107951,6893.380761585399,0.9949442781463332,-3.424444329253104e-05,0.0003342828188524484,0.10042793668191616
1.135,4.867894270773144e-06,0.0005573802568706981,-0.007104353166330291,-44.65191385106681,48.83479173558236,4.835504610625263,-1656439.7288086154,5091658.966352413,3598982.988434423,-177.14085795483442,-4939.332825772936,6893.5558097175235,0.9949460545825211,-3.436100655131529e-05,0.0003356859136139895,0.10041033116648716
1.1400000000000001,-9.284222849901599e-06,0.000602359384372774,-0.007085489895464047,-44.64234893767725,48.80864475232442,4.837205488431453,-1656440.6138083118,5091634.269684124,3599017.456650902,-176.85902057928624,-4939.334490040378,6893.730781812268,0.9949478373334194,-3.4494777233919164e-05,0.00033707293346471986,0.10039265997820486
1.145,-1.021208743423669e-05,0.0005634220333955486,-0.007097195417368385,-44.638576714556606,48.79106505519816,4.839280533916917,-1656441.4973990642,5091609.573007614,3599051.9257420283,-176.5772804238848,-4939.3361138637965,6893.905668604182,0.9949496149957419,-3.4675022491397805e-05,0.00033856828262776497,0.10037503568609969
1.1500000000000001,3.627553647660244e-06,0.0005699005851279094,-0.007076570184593166,-44.613269564715,48.758111460959775,4.832182677757298,-1656442.3795812568,5091584.876323071,3599086.3957074527,-176.29559658558975,-4939.337703537923,6894.0805011471775,0.9949513953134735,-3.484781474705026e-05,0.00033996654607694053,0.10035738225038324
1.155,3.606723028648344e-05,0.0005694359147727835,-0.007071889619552993,-44.600193264347936,48.736289961775796,4.82877753495359,-1656443.2603554518,5091560.179630552,3599120.866546728,-176.0140814965657,-4939.339304037194,6894.255209115376,0.9949531701378561,-3.498779046264145e-05,0.0003413843981011769,0.10033978007339643
1.16,-1.0162402555810296e-06,0.0005677514656085791,-0.007072543625428171,-44.59162507556101,48.70928272726422,4.8321657173674835,-1656444.1397223182,5091535.482930039,3599155.338259346,-175.73266502087412,-4939.3409012874645,6894.429837931079,0.9949549434781325,-3.504695571242379e-05,0.00034280923208929566,0.1003221894795337
1.165,9.502757815049673e-06,0.0005777841128114948,-0.007074027846879852,-44.584350678113964,48.6872375220596,4.825862236382841,-1656445.0176823433,5091510.786221667,3599189.8108448954,-175.45134497321703,-4939.342447331651,6894.60438181507,0.9949567166675927,-3.519793999846505e-05,0.00034422057529729885,0.10030459725927003
1.17,1.2368256313609513e-05,0.0005683670853201634,-0.00708864629598849,-44.560601722919266,48.66659650751696,4.822215036794535,-1656445.894235941,5091486.089505576,3599224.2843029317,-175.1700941737318,-4939.343989148057,6894.778832724563,0.9949584899083709,-3.532527648281228e-05,0.0003456595111503184,0.10028700130566054
1.175,-1.0304468255442845e-05,0.0005689114805378114,-0.007102413408862794,-44.56580979499712,48.64145741190511,4.822505614824982,-1656446.7693836452,5091461.3927817205,3599258.758633057,-174.88898742472875,-4939.345553202754,6894.953217398151,0.9949602665087691,-3.544313694476375e-05,0.0003470757401552929,0.10026936895689462
1.18,1.4616181313951417e-05,0.000575920530562252,-0.007088045202585912,-44.5535827761124,48.620283372068855,4.826919224611092,-1656447.6431258835,5091436.696050202,3599293.2338348622,-174.60790795043326,-4939.347054372238,6895.127504687349,0.9949620462426434,-3.5617541956675156e-05,0.00034848763851004315,0.10025170235167351
1.185,8.823343298720082e-07,0.000570471948130145,-0.007089245953468101,-44.53486325909395,48.59765940705497,4.811090820304982,-1656448.5154629839,5091411.999311262,3599327.7099079653,-174.32693214157135,-4939.348521245422,6895.301736613762,0.9949638220564444,-3.57317033612173e-05,0.0003499232182245752,0.10023407143191815
1.19,1.703793784855254e-05,0.0005980126725384652,-0.007045358630218319,-44.52682241286867,48.56750968855781,4.819370486996765,-1656449.3863954784,5091387.30256485,3599362.186851947,-174.04606573387042,-4939.350043503263,6895.475856033305,0.9949655978601576,-3.587866217311054e-05,0.0003513418033667287,0.10021643750621982
1.195,-2.1107965778376837e-05,0.000563721806210233,-0.007045271185008985,-44.51268880131443,48.545196929299046,4.806683391850905,-1656450.2559239059,5091362.605811024,3599396.6646663146,-173.76530527132294,-4939.3514870011195,6895.649890972527,0.994967362332828,-3.5992296834033736e-05,0.00035283294516088855,0.10019891269830425
1.2,3.7453709060806243e-06,0.0005708844197858709,-0.007079126139612758,-44.50566566876474,48.51847997187305,4.816187749509205,-1656451.1240487618,5091337.909049895,3599431.143350591,-173.48463707856337,-4939.352964756021,6895.823819627943,0.9949691264996398,-3.619222646053567e-05,0.00035422923567549465,0.10018138811333865
1.205,-3.317870373113558e-06,0.0005497074361965451,-0.007056729031425248,-44.492381530090725,48.48617022243132,4.8025000409258585,-1656451.9907705185,5091313.212281571,3599465.6229043407,-173.20406562136705,-4939.354364701654,6895.997680257628,0.994970898829295,-3.633215920143627e-05,0.0003556495640686028,0.100163779262699
1.21,-8.99693183294985e-07,0.0005695139799988319,-0.0070594449877069585,-44.47423077872675,48.470678088355946,4.806087051951961,-1656452.856089681,5091288.5155062135,3599500.1033270177,-172.92359927349116,-4939.355778197255,6896.171390498639,0.9949726652560841,-3.6484338399164774e-05,0.00035701544947596846,0.10014622609996997
1.215,-1.9607339759571098e-06,0.0005698700524380963,-0.007060179655674456,-44.468005899933715,48.442413553515856,4.809970079293096,-1656453.7200068086,5091263.818723803,3599534.584618171,-172.64325184253943,-4939.357185767318,6896.345070936417,0.9949744320336612,-3.6635463835580924e-05,0.00035843120737624046,0.10012866614614346
1.22,-2.2410674840710047e-05,0.0005611407532722764,-0.007047600166785139,-44.44911931015807,48.42017857270751,4.801346835535975,-1656454.5825224211,5091239.121934508,3599569.0667775003,-172.36299312309447,-4939.358532464578,6896.518660701022,0.9949761986827664,-3.6789318322626934e-05,0.0003598475852027791,0.1001111043344017
1.225,4.184511815737358e-06,0.0005530013839888624,-0.007068166680008752,-44.446761966543704,48.38973159859847,4.793716706886281,-1656455.4436370365,5091214.425138408,3599603.5498045515,-172.08285304230515,-4939.359907341498,6896.692159737464,0.994977961878066,-3.699184474301879e-05,0.00036123713229600833,0.10009357380125691
1.23,1.4230536638665484e-05,0.0005808456659960029,-0.007038829704076977,-44.43167972258435,48.367912183510576,4.792393454904788,-1656456.3033511026,5091189.728335506,3599638.0336987604,-171.80277341638578,-4939.3612537923555,6896.865523812602,0.9949797299179106,-3.7126198917354766e-05,0.000362613086159631,0.10007599205542128
1.235,-3.7617568993738325e-05,0.0005496931900135346,-0.007046337463850416,-44.42074333212889,48.34107435862201,4.793208209592785,-1656457.1616650461,5091165.031525889,3599672.51845961,-171.52280397761973,-4939.362592828566,6897.038816119165,0.9949814902822388,-3.7242503867847904e-05,0.00036406081728792346,0.10005848324081537
1.24,-2.9121444704553787e-06,0.0005761935777995585,-0.007042203774569699,-44.400765873612336,48.32267197631432,4.793797766040486,-1656458.0185794006,5091140.334709668,3599707.0040866975,-171.24293785910476,-4939.363895938791,6897.212018822499,0.9949832522377052,-3.747999272971466e-05,0.00036541808765414534,0.10004095576987714
1.245,-1.757792613725151e-05,0.0005653741973130824,-0.007027674903879114,-44.39736419205478,48.29114245353142,4.785943488249059,-1656458.8740947458,5091115.637886923,3599741.490579677,-170.9632001801163,-4939.365201979734,6897.3851729548915,0.9949850128278124,-3.763777732347095e-05,0.00036684995680829734,0.1000234385159049
1.25,2.5211516973830023e-05,0.0005574043105470962,-0.007035839820456143,-44.38564549388142,48.26441775154346,4.779975343869631,-1656459.7282115694,5091090.941057717,3599775.9779380793,-170.68352927436285,-4939.3664800692695,6897.558187960037,0.9949867694836022,-3.782932368401872e-05,0.0003682512471069607,0.10000595738527995
1.2550000000000001,-2.9136326432587786e-06,0.0005704145911426169,-0.007029071092750021,-44.371936852663495,48.24018631531006,4.7728234071738935,-1656460.5809302833,5091066.24422214,3599810.466161288,-170.4039562406966,-4939.367750841174,6897.731095440391,0.994988527882678,-3.7912447634841506e-05,0.00036964340968725755,0.09998845587495309
1.26,-3.834912865764442e-06,0.0005585394244496983,-0.007010184492216571,-44.35933063544586,48.2093576528467,4.7816248093122224,-1656461.4322513838,5091041.547380191,3599844.955248786,-170.12448402887048,-4939.369028729389,6897.903903874201,0.9949902842655513,-3.806877801653325e-05,0.0003710609050182482,0.09997097119529473
1.2650000000000001,2.4570037198945073e-05,0.000599441959177545,-0.0070324618644581035,-44.343996566733075,48.18834187442974,4.787753423588072,-1656462.2821754438,5091016.850532036,3599879.445200121,-169.84513999228568,-4939.370233450526,6898.076630148289,0.9949920356306641,-3.822441459853772e-05,0.000372448632589795,0.09995353346659407
1.27,-7.159295155639871e-06,0.000537158549865297,-0.007042717243377359,-44.33479047324888,48.17885078104512,4.773076532291502,-1656463.1307030823,5090992.153677943,3599913.9360149684,-169.56591532335185,-4939.371403661076,6898.249308860179,0.9949937922184957,-3.831963604609688e-05,0.0003739452000954921,0.09993604026200888
1.2750000000000001,-1.1872128579351e-05,0.0005530947369144087,-0.007032705261460328,-44.312255007225204,48.13761745832893,4.772054536444049,-1656463.9778347085,5090967.456817846,3599948.42769305,-169.2867351818467,-4939.372635260038,6898.421923665352,0.9949955511137041,-3.8478232397642776e-05,0.00037527891022858076,0.09991852155181949
1.28,4.1966839945941565e-06,0.0005768488723657558,-0.007009943906129234,-44.308839565888995,48.10932251267326,4.778787452237771,-1656464.8235708808,5090942.759951686,3599982.9202338457,-169.00773378182538,-4939.373828829118,6898.594394708576,0.9949973071826932,-3.865252326534001e-05,0.0003766510850475764,0.099901027718096
1.285,-2.2110398894685722e-05,0.0005704099720098102,-0.007028723444476193,-44.29058251878924,48.080848695343306,4.7621324435518835,-1656465.6679122455,5090918.063079752,3600017.413636784,-168.72881208020735,-4939.374944407277,6898.766780509897,0.9949990572375962,-3.87927542815523e-05,0.0003780863634284744,0.09988359045468354
1.29,4.924035324347306e-06,0.000569427777951586,-0.007012825390112131,-44.288625982270176,48.06353168225582,4.756999615771993,-1656466.5108592932,5090893.366202131,3600051.907901303,-168.4500069553471,-4939.376104049264,6898.939027129591,0.9950008116770006,-3.899683399196114e-05,0.000379499054006693,0.09986610647173985
1.295,-2.041524288501945e-05,0.0005552759744787507,-0.007006838362209029,-44.267007337036475,48.035492642694464,4.766621552760819,-1656467.3524124105,5090868.669318735,3600086.4030268677,-168.17124005660168,-4939.377254696082,6899.111198715626,0.9950025618422285,-3.9133405177317864e-05,0.00038091605236666566,0.09984866197871684
1.3,6.3767994440464815e-06,0.0005513348435249762,-0.007002979465259799,-44.25041966150293,48.010705171862256,4.755324914532493,-1656468.1925721052,5090843.972429713,3600120.8990131374,-167.89263777759237,-4939.378353729066,6899.28330912084,0.9950043102164176,-3.9329469669421867e-05,0.0003822915232602976,0.09983123237311675
1.305,2.156470904033002e-05,0.0005584700230076458,-0.0069860698601365906,-44.24062324816833,47.98549268440206,4.749983764589298,-1656469.0313390617,5090819.275535127,3600155.395859682,-167.61414482327245,-4939.379480791434,6899.455308883292,0.9950060573268585,-3.945790134743752e-05,0.00038366387751616966,0.09981381231053867
1.31,-1.38445076987448e-05,0.0005608579723774608,-0.007017033267103047,-44.22424401594027,47.95304389116667,4.75085818356279,-1656469.8687137717,5090794.578634932,3600189.893565973,-167.3357391249732,-4939.3805975119185,6899.627207356448,0.9950077999062625,-3.955031711280587e-05,0.00038505777209694927,0.09979643426487542
1.315,-1.1124576251893856e-05,0.0005577867323590723,-0.0069916081987516894,-44.217449384277266,47.91802052506697,4.748864706846396,-1656470.7046967973,5090769.881729247,3600224.392131486,-167.05747116113417,-4939.381676180022,6899.798997919468,0.995009549898153,-3.973143956196729e-05,0.00038644876928415267,0.099778979200212
1.32,-1.75213552018485e-05,0.0005675615706098973,-0.006995824997608605,-44.20712249106266,47.908641512627504,4.747730145127944,-1656471.5392887224,5090745.1848183,3600258.8915556166,-166.77929884487435,-4939.382702630633,6899.970654232469,0.995011293244017,-3.990500542774601e-05,0.00038783280757462995,0.09976158734790011
1.325,7.02995236760267e-06,0.0005547140914603598,-0.006984931579608522,-44.18519107430162,47.8733560387308,4.740530895215052,-1656472.3724899525,5090720.487902194,3600293.391837966,-166.5011931796499,-4939.3837396401,6900.142285748756,0.9950130373253059,-4.009692542146518e-05,0.000389239565129167,0.09974418498071427
1.33,1.4800403424686496e-06,0.0005752491112638076,-0.006985112260603462,-44.16980041370996,47.8507872168597,4.744492554385572,-1656473.2043010474,5090695.790980907,3600327.8929781304,-166.22324485253398,-4939.384775268753,6900.313779783559,0.9950147783993247,-4.0224558971366054e-05,0.0003906204872583255,0.09972680965799859
1.335,1.8747652602345765e-05,0.0005650887652943675,-0.006965193700575368,-44.15934046085776,47.820134213974875,4.740236869173171,-1656474.0347226998,5090671.0940545155,3600362.3949756143,-165.9454160609555,-4939.38578136806,6900.485213832745,0.9950165191923721,-4.03711180265991e-05,0.00039205110718231373,0.09970943385857714
1.34,-1.2695351632801526e-05,0.0005792782030037906,-0.006990246029614459,-44.146524064711144,47.79965283753581,4.730725717643768,-1656474.8637554613,5090646.397123158,3600396.897829969,-165.66768859482886,-4939.386761628797,6900.6565280307605,0.995018254727362,-4.0472170942269706e-05,0.0003934607590760335,0.09969210756097499
1.345,-1.3179465573040192e-05,0.0005778355225035543,-0.00697003961580315,-44.130073977333986,47.7621293182315,4.733897701343277,-1656475.691399803,5090621.700186841,3600431.4015406664,-165.3900480509566,-4939.387764937668,6900.827750914378,0.9950199961841851,-4.065500083368025e-05,0.00039489786863986995,0.09967471894351342
1.35,3.0269631100201657e-05,0.0005468898550601153,-0.006986095324458059,-44.123836297757194,47.74239760783414,4.72424439201466,-1656476.517656317,5090597.003245655,3600465.906107173,-165.11255754365845,-4939.388709591338,6900.998851707279,0.9950217323021301,-4.083865552464168e-05,0.00039633127076169067,0.09965738056057974
1.355,-1.148485486855465e-05,0.000537136185300658,-0.006955264501102573,-44.110700662285055,47.720231483705454,4.72990571338438,-1656477.342525518,5090572.306299716,3600500.411528948,-164.83512289109197,-4939.38966613983,6901.169858424024,0.9950234721505566,-4.090653421255669e-05,0.00039769851715171667,0.09964000216778068
1.36,2.061084858999306e-05,0.0005548251688035055,-0.006944594172086379,-44.09030646798259,47.692563264815455,4.716962889750353,-1656478.166007823,5090547.609349093,3600534.9178056186,-164.5577990924075,-4939.390582733722,6901.340809676973,0.995025204020442,-4.1075819329364224e-05,0.0003990311027046345,0.09962270048053253
1.365,2.850868233717195e-06,0.0005488976301289307,-0.006950211625318825,-44.079484875556204,47.65964352789509,4.725305933855542,-1656478.9881038324,5090522.9123938,3600569.424936735,-164.28060463304325,-4939.391534886663,6901.511636962425,0.9950269329162208,-4.1169659265276687e-05,0.00040041568534475295,0.09960542527230527
1.37,1.623366411777706e-05,0.0005641327946169053,-0.006960494320901011,-44.062758300938526,47.63359217835453,4.715300414240772,-1656479.8088141773,5090498.215433945,3600603.932921754,-164.00353328972642,-4939.392407002381,6901.682370638758,0.9950286629128671,-4.130620792141349e-05,0.0004017810996575884,0.09958813607843614
1.375,-1.5239864228547496e-05,0.0005629259109361813,-0.006935441109233598,-44.04980384298368,47.60932326408236,4.71522094831068,-1656480.6281394497,5090473.518469679,3600638.441760161,-163.72657569559527,-4939.393299280117,6901.852992122357,0.9950303951528985,-4.141326933380929e-05,0.0004031877432689325,0.09957082126030539
1.3800000000000001,-5.244070628936552e-06,0.0005561152348437945,-0.00694880070696253,-44.03491884809142,47.57525020889441,4.712918141236918,-1656481.4460802001,5090448.821501008,3600672.9514514743,-163.44972449167423,-4939.394168970855,6902.023533346837,0.9950321208522734,-4.159829784812319e-05,0.00040458355252414045,0.09955356876555187
1.385,-1.4399605802934834e-05,0.0005475420108246765,-0.006972789161046254,-44.029901622918736,47.54972193058419,4.709796181793994,-1656482.262637019,5090424.124528071,3600707.4619951826,-163.1730029931295,-4939.3950062324575,6902.193949789504,0.9950338495829075,-4.175677945546915e-05,0.0004059649059559742,0.09953628299814304
1.3900000000000001,1.72024812768352e-05,0.0005752225460437151,-0.006948868066385197,-44.00737867496975,47.51901437633397,4.698792361131263,-1656483.0778104027,5090399.427551021,3600741.9733907213,-162.8963505686932,-4939.395813777343,6902.364265806782,0.9950355839873699,-4.193592719766065e-05,0.0004073226518697977,0.09951893753727961
1.395,-3.0553158850060628e-06,0.0005644275001871782,-0.006950937234592136,-43.99860615509611,47.490393844953154,4.699312991649439,-1656483.8916008915,5090374.73056987,3600776.4856375176,-162.61984494168644,-4939.3966465736,6902.534452655728,0.9950373121121613,-4.204332440877125e-05,0.00040875712047648923,0.09950165151685063
1.4000000000000001,8.18163659092259e-06,0.0005487838602445803,-0.006913389205421452,-43.979974568235164,47.46592282585491,4.692916417594815,-1656484.7040090924,5090350.033584664,3600810.9987349985,-162.3434354572584,-4939.397435813959,6902.704539791812,0.9950390404581644,-4.219843156943671e-05,0.0004101596958472518,0.09948436034076885
1.405,8.041074867154752e-06,0.0005622346650317062,-0.006952663824932962,-43.96008982766035,47.43701824247966,4.693093559209448,-1656485.5150355562,5090325.3365954785,3600845.51268268,-162.06715004890054,-4939.3982384824985,6902.8745327777915,0.9950407591820071,-4.232165645581918e-05,0.0004115261547265819,0.09946716252912997
1.41,2.9201921000586394e-06,0.0005738026321286901,-0.006945834739867809,-43.95790213985595,47.40785649985405,4.694211693011543,-1656486.3246809582,5090300.63960233,3600880.027480094,-161.7910106824794,-4939.399020994594,6903.044432957606,0.9950424873574838,-4.244861618081691e-05,0.00041292603462039464,0.0994498669865207
1.415,2.84910996978168e-06,0.0005686921445759853,-0.006936576146043213,-43.93841944815738,47.3710518308334,4.68672212060699,-1656487.1329458337,5090275.94260542,3600914.5431267456,-161.51493960700722,-4939.399742897687,6903.214227483992,0.9950442135202602,-4.2591183664932193e-05,0.00041435341848256453,0.09943258840582753
1.42,2.7828280257201566e-05,0.0005596045603656541,-0.00692761984486819,-43.92701865463786,47.351956573929776,4.6820450433380625,-1656487.9398307255,5090251.245604923,3600949.0596220028,-161.23901705982328,-4939.40045586184,6903.383875369693,0.9950459370851434,-4.273264799745279e-05,0.00041576807263258436,0.099415332827383
1.425,9.114955071816515e-06,0.0005164642803603792,-0.0069272036474497005,-43.90866896164979,47.31826412638893,4.687536150403049,-1656488.7453362148,5090226.548600851,3600983.5769653157,-160.9631786951914,-4939.401173019602,6903.553449807354,0.9950476581353256,-4.2809705839917055e-05,0.00041716632948567443,0.09939809947371708
1.43,3.6974357346575726e-06,0.0005589334667040109,-0.006907772602241207,-43.89210132359813,47.2967868636065,4.682961499893987,-1656489.5494628989,5090201.8515933305,3601018.0951562542,-160.68749486044055,-4939.401834887149,6903.722925597116,0.9950493788248216,-4.292259470679395e-05,0.00041845261949856436,0.09938086714953223
1.435,-1.0853744704835e-05,0.0005524157251742578,-0.006940075620083253,-43.87938334513637,47.26521196394799,4.674750721961693,-1656490.3522114428,5090177.154582479,3601052.614194375,-160.41192275861363,-4939.402505640747,6903.892322719732,0.9950510943422286,-4.305949154286995e-05,0.00041984321281992275,0.09936368313367921
1.44,7.117512675598037e-06,0.0005383748923638436,-0.006931475805453311,-43.85246556336805,47.2413284215164,4.674551734754951,-1656491.153582396,5090152.457568294,3601087.134079149,-160.13645847970963,-4939.403168451687,6904.061586826104,0.9950528175892083,-4.323100112450391e-05,0.00042121397417548413,0.09934641874595349
1.445,-5.62776956422664e-06,0.0005315029273133139,-0.006906675279513685,-43.8430422978823,47.21256003178067,4.676465562546058,-1656491.953576448,5090127.7605507765,3601121.654810074,-159.8611623273805,-4939.403838512764,6904.230783195907,0.9950545384159942,-4.335430849529091e-05,0.0004225542713575982,0.0993291757039414
1.45,-1.4795256947976823e-05,0.0005666901060841922,-0.006918880091799673,-43.82807871259969,47.181105184834166,4.672496786447529,-1656492.7521942717,5090103.06353003,3601156.176386741,-159.5859671933467,-4939.4044604836845,6904.399883577862,0.9950562527906075,-4.350758881488332e-05,0.0004238743112045744,0.09931199434092979
1.455,2.998769148245704e-05,0.0005510093689710065,-0.006900609482599894,-43.8192413322635,47.150362320392546,4.669524850447993,-1656493.5494364277,5090078.366506222,3601190.6988086123,-159.31089516294978,-4939.405062672938,6904.56886508682,0.9950579698580796,-4.369242374102087e-05,0.00042527960654864115,0.09929478259277007
1.46,2.11808308656456e-06,0.0005405622866820826,-0.006915500960675937,-43.80580415534537,47.127700200936104,4.671806686884825,-1656494.3453034624,5090053.669479489,3601225.2220750963,-159.0359187509201,-4939.405630258142,6904.737728424106,0.9950596821127994,-4.3761942615915244e-05,0.0004266570124374172,0.09927761621967406
1.465,-2.0333659474686296e-05,0.0005447971049360193,-0.006911303851548378,-43.78408315465439,47.09097866188873,4.655997049796837,-1656495.1397958866,5090028.972449987,3601259.7461857293,-158.76105091182848,-4939.406170478247,6904.9065248658235,0.9950613977729493,-4.389821426716842e-05,0.00042800151082227533,0.09926041280287883
1.47,-7.009518733467754e-06,0.0005329119278175676,-0.006881156031275607,-43.76583860090364,47.06108783936676,4.652040227436912,-1656495.9329143406,5090004.2754177125,3601294.2711399253,-158.486330700682,-4939.406739237587,6905.0751534370675,0.9950631120855099,-4.4091384444662535e-05,0.000429350972876447,0.09924321982076167
1.475,4.469198519055895e-08,0.000553696907270559,-0.006914500316580268,-43.7658095408537,47.03691999092771,4.656529038824469,-1656496.7246595311,5089979.578382619,3601328.7969369893,-158.21174551856902,-4939.407298453989,6905.243672182091,0.9950648186348006,-4.424842753848799e-05,0.0004306741776986122,0.09922610179343315
1.48,1.2734316789592583e-05,0.0005422903620854604,-0.0068890729502551346,-43.73183241733241,46.99627672010943,4.6515237433064875,-1656497.5150319303,5089954.881344896,3601363.323576452,-157.93721418218865,-4939.407790762141,6905.412113070002,0.9950665331363056,-4.439311405932703e-05,0.0004320508346124274,0.09920890077720651
1.485,2.148941426294901e-06,0.0005566459439714126,-0.006894184284064253,-43.71641367543725,46.97522869248226,4.648674681863871,-1656498.3040322317,5089930.184304706,3601397.851057761,-157.66290636776552,-4939.4082850170835,6905.5804103524815,0.9950682410468694,-4.450337647265462e-05,0.0004334022658496933,0.09919176297362
1.49,1.8296542039990888e-07,0.0005338917166700687,-0.006894513523433335,-43.71379247640187,46.946610227543104,4.645330953933349,-1656499.091661264,5089905.487262044,3601432.3793803733,-157.38870650100463,-4939.408779872294,6905.748634506449,0.9950699499109513,-4.464353722664333e-05,0.0004347867833927398,0.09917461243495937
1.495,-6.573401582045436e-06,0.0005703497322665519,-0.0068601900290604576,-43.69266409939367,46.91756126398287,4.637091053543545,-1656499.8779194553,5089880.79021701,3601466.908543817,-157.11457000254237,-4939.409233704465,6905.916742948689,0.9950716585837168,-4.478294743008932e-05,0.0004361142082122466,0.09915746105228808
1.5,1.3170709024434353e-05,0.0005345696710178767,-0.006890221819755808,-43.67827086206254,46.884691404437554,4.633191036961141,-1656500.6628073163,5089856.09316967,3601501.4385475125,-156.84057443251186,-4939.409702640728,6906.084735312548,0.9950733584113445,-4.494816558175598e-05,0.00043753065772938977,0.09914039502924103
1.5050000000000001,-7.65906037314009e-06,0.0005564445405759809,-0.006868995807295165,-43.66674437427538,46.858696539849845,4.641368923337811,-1656501.4463255072,5089831.396120045,3601535.9693908575,-156.56670192879844,-4939.410146961409,6906.2526026905825,0.9950750654278624,-4.5055431349938855e-05,0.0004388629878747975,0.0991232542495526
1.51,3.5958468331629364e-06,0.0005281530767621733,-0.006857926912940698,-43.64815365742255,46.82436233350252,4.63087360236252,-1656502.228474619,5089806.699068355,3601570.5010733753,-156.29294286982105,-4939.410529076854,6906.42040447661,0.9950767668618529,-4.5219912547471075e-05,0.0004402445763372549,0.09910616626443723
1.5150000000000001,-1.0596977001043905e-05,0.0005526428505340083,-0.006864502623442503,-43.62760471190713,46.794205786978274,4.629909693883977,-1656503.009255276,5089782.002014738,3601605.033594537,-156.01931984930738,-4939.410917777022,6906.5880602905745,0.9950784652909639,-4.534937316110793e-05,0.0004415585740515265,0.0990891057767708
1.52,-3.698368313355918e-07,0.000545126128923458,-0.006850343796390607,-43.61223436077916,46.76021857714608,4.625966383452431,-1656503.7886681918,5089757.304959221,3601639.566953726,-155.7458464285375,-4939.411289114973,6906.755615330899,0.9950801650257886,-4.552021512809042e-05,0.00044292997812025363,0.09907202891428989
1.5250000000000001,-2.1643296620552384e-06,0.0005298157830222089,-0.006869536286089509,-43.58889258754467,46.74091058127461,4.617262515523828,-1656504.5667140638,5089732.607901909,3601674.1011503683,-155.4725023636857,-4939.411635427447,6906.923041485025,0.9950818609689113,-4.566373760014332e-05,0.00044428521737663415,0.09905498723495548
1.53,2.1189615183397537e-06,0.0005259075425096024,-0.006848259136851602,-43.58302780952785,46.71161111432388,4.610281935285468,-1656505.3433935475,5089707.910842757,3601708.636183951,-155.1992911213005,-4939.4120255270545,6907.09039156617,0.9950835613871456,-4.580795412896702e-05,0.0004456019223081323,0.09903789778480337
1.5350000000000001,1.2000847695414721e-05,0.0005408959281448198,-0.0068529813059203006,-43.56924224095228,46.679591844581466,4.615635196145811,-1656506.118707161,5089683.213781708,3601743.1720539685,-154.9261542655027,-4939.412393950111,6907.257615556393,0.9950852562477978,-4.594052369994612e-05,0.00044690996750016684,0.09902086123238842
1.54,1.0268435681595387e-05,0.0005263179371608767,-0.006864473496363119,-43.54781256620032,46.647560046301045,4.617191693714273,-1656506.8926554166,5089658.516718969,3601777.7087598657,-154.65314804435744,-4939.412701983432,6907.424743320823,0.9950869519681744,-4.605222564238893e-05,0.00044825774510406593,0.0990038128905883
1.545,-6.226525449650641e-06,0.0005423211945540138,-0.006843950508833697,-43.52711925450804,46.6145302406058,4.602090664750656,-1656507.6652390414,5089633.819654763,3601812.2463011504,-154.38030193303186,-4939.412980147177,6907.5917704281355,0.995088650254774,-4.6164642009608433e-05,0.00044956882654225084,0.09898673593380133
1.55,-1.1754425199200791e-05,0.0005258330713859623,-0.006828407481389555,-43.51356724348676,46.591460488274826,4.594806524103593,-1656508.4364587788,5089609.122589087,3601846.7846771902,-154.10759299467523,-4939.413290295093,6907.758645630649,0.9950903431487632,-4.6322030444002315e-05,0.0004509156399098109,0.09896971001994448
1.555,-4.8706445608087965e-06,0.0005577071813748124,-0.006852361031700866,-43.494605748320325,46.5613648786746,4.604187824042498,-1656509.206315215,5089584.425521837,3601881.323887368,-153.8349814172356,-4939.413609951974,6907.92542542546,0.9950920319225521,-4.648907368052729e-05,0.0004522200692778835,0.09895272275193581
1.56,2.1504846630129314e-05,0.0005191719885512859,-0.0068522857696778515,-43.4824622842939,46.51806725394678,4.587176412632732,-1656509.9748089819,5089559.728453141,3601915.8639312624,-153.56252541639168,-4939.413868314558,6908.092132234575,0.9950937262939424,-4.6646904070802725e-05,0.0004536054928332073,0.09893567585335279
1.565,-3.6547104331765263e-06,0.0005364717022936701,-0.006859028908442584,-43.46344237936436,46.4929922101419,4.597607694026097,-1656510.7419407556,5089535.031383158,3601950.4048081758,-153.29018402615475,-4939.414125041189,6908.2586330863,0.995095420399661,-4.6729587884086815e-05,0.00045490157463443673,0.0989186290873716
1.57,7.194318440400272e-06,0.0005466357277153675,-0.0068616485086881,-43.44728714073299,46.46621847249185,4.594591479983612,-1656511.5077111928,5089510.3343120245,3601984.9465174694,-153.01799087983144,-4939.414327999812,6908.425084366012,0.9950971158562771,-4.6879147912168695e-05,0.00045623447080604874,0.09890156554358612
1.575,-1.1428362125645394e-05,0.0005323073469831569,-0.006807759921596938,-43.43175432608093,46.444674724723974,4.5847226095244435,-1656512.2721209673,5089485.637239904,3602019.489058778,-152.7459188579716,-4939.414520428915,6908.591439228097,0.9950988116557444,-4.700423441596887e-05,0.00045759533448141624,0.09888449544007019
1.58,2.8873942194718308e-06,0.0005565094655193843,-0.006815598315839402,-43.413671155595466,46.39425982843453,4.594677312892068,-1656513.035170632,5089460.940166753,3602054.0324316244,-152.4739470375095,-4939.414740082797,6908.757699265434,0.9951004938552086,-4.717204563954569e-05,0.00045891595523230553,0.09886755939166411
1.585,4.414006577703655e-06,0.0005203832717390713,-0.006838826950343753,-43.40538884835418,46.371889495531185,4.584365212763005,-1656513.7968609089,5089436.243092784,3602088.576635384,-152.2021637665631,-4939.414847533393,6908.923804573248,0.995102177675584,-4.73102338127231e-05,0.00046030032218487163,0.09885060379515034
1.59,1.6447189473435808e-06,0.0005238276543127929,-0.006789942860198857,-43.38058395596822,46.337600431075195,4.575776023813276,-1656514.5571924408,5089411.546018247,3602123.1216694065,-151.93044899615037,-4939.414967187121,6909.089804504705,0.9951038669864265,-4.743572312402985e-05,0.00046159519038626066,0.0988335903850144
1.595,1.0206932998111482e-05,0.0005303144153715576,-0.00680779898858597,-43.367612670094346,46.3096513313488,4.575437137996254,-1656515.3161658144,5089386.848943083,3602157.6675330903,-151.6589003883969,-4939.415098581564,6909.255668866369,0.9951055439239883,-4.756889638365055e-05,0.00046289794879947435,0.09881669856068084
1.6,-1.6676681208709434e-05,0.0005358944439212903,-0.0067951933693152135,-43.34706209111369,46.281903850112485,4.573927661602685,-1656516.0737817255,5089362.151867337,3602192.2142258543,-151.38746405849201,-4939.415199595629,6909.421436821979,0.9951072249770521,-4.7682392027466555e-05,0.0004642189577087002,0.09879976227511628
1.605,4.562974507348713e-06,0.0005446753731521108,-0.006792230524799465,-43.323227276583424,46.25172930570572,4.564585937195102,-1656516.830040816,5089337.454791111,3602226.7617472266,-151.1161721943797,-4939.415290777424,6909.5871120974625,0.9951089026173732,-4.7864131488551575e-05,0.0004655472095656289,0.09878285735120187
1.61,-8.130142255287512e-07,0.0005442430504810625,-0.006803788264341862,-43.314375800064184,46.20898379391143,4.572694414501652,-1656517.584943831,5089312.757714374,3602261.310096671,-150.8450337855072,-4939.415404105348,6909.752665559059,0.995110579229449,-4.7995196574356155e-05,0.0004669025518787764,0.09876595974372322
1.615,-1.1752126889703553e-05,0.0005236992434388405,-0.006809005720937787,-43.29276576647756,46.1877821588305,4.562414192015268,-1656518.3384914815,5089288.060637335,3602295.8592735417,-150.5740263627615,-4939.415411237142,6909.918082754285,0.9951122584058999,-4.813954264830325e-05,0.00046825548973553635,0.09874903336078965
1.62,-6.088291107129754e-06,0.0005559249775950929,-0.006813624957056202,-43.27409450099405,46.1547243440884,4.559206170842063,-1656519.0906844104,5089263.363560156,3602330.409277274,-150.30314520801076,-4939.415460313355,6910.083410180581,0.9951139386032275,-4.830603722602648e-05,0.0004695546177754098,0.09873209398447853
1.625,-2.3454239987587866e-06,0.000526992910583038,-0.006774451123838831,-43.26835061844429,46.122057593256066,4.553854028703072,-1656519.8415232915,5089238.66648278,3602364.960107342,-150.03240732106656,-4939.41549018153,6910.24861702232,0.9951156196132164,-4.846640109281776e-05,0.00047093531381944977,0.09871514307715264
1.6300000000000001,3.299812573912686e-05,0.0005446407048200526,-0.006798422959968495,-43.24508556173078,46.08593890729153,4.556656819678502,-1656520.5910086879,5089213.969405346,3602399.5117631056,-149.76175119394537,-4939.415483770604,6910.413688399368,0.9951172907011837,-4.861026727808257e-05,0.0004722449612879745,0.09869828959649907
1.635,-1.6169832366263274e-06,0.0005464547288734933,-0.0067996141965255795,-43.22505187929369,46.047348838621595,4.550177138916862,-1656521.3391412462,5089189.272328044,3602434.0642439444,-149.4912721116392,-4939.415436732736,6910.578647247604,0.9951189673993258,-4.867058882488199e-05,0.0004736072306392472,0.09868137640641453
1.6400000000000001,1.9674356989609247e-06,0.000557763940377787,-0.006794380306565996,-43.205529550493154,46.031062204733615,4.547676914945009,-1656522.0859217965,5089164.575251019,3602468.6175492,-149.22094805773716,-4939.415373322129,6910.74345498646,0.9951206440956296,-4.881747467262715e-05,0.0004749654729657303,0.0986644602648444
1.645,-1.3213558764066975e-05,0.0005450653229616946,-0.006760068674726892,-43.185822985171356,45.99587089539765,4.542503394167737,-1656522.831351022,5089139.878174265,3602503.17167837,-148.9507421087442,-4939.415328225703,6910.908212957477,0.9951223191987127,-4.895822651131897e-05,0.0004763527350044185,0.09864755710984087
1.6500000000000001,-1.2142891096275185e-05,0.0005442322590258784,-0.006772940852531423,-43.166507123718326,45.960465661146024,4.539248968180174,-1656523.5754295907,5089115.181097773,3602537.726630995,-148.68068532161763,-4939.415268773721,6911.072836992106,0.9951239855656028,-4.913357312181016e-05,0.0004777046654909721,0.09863073930664078
1.655,7.481644916393303e-06,0.0005129520385543603,-0.006765512263881402,-43.153180609934466,45.93531536773856,4.537363731638385,-1656524.3181582508,5089090.484021636,3602572.2824064153,-148.41077874831313,-4939.415186098052,6911.237331210569,0.9951256548209896,-4.930606605893517e-05,0.0004790547857558963,0.098613889450325
1.6600000000000001,1.6294010050075515e-06,0.0005531851651381355,-0.006743843045204653,-43.13475114885084,45.8968684878336,4.529583280749873,-1656525.0595376452,5089065.786945955,3602606.839004084,-148.14097898562338,-4939.4150862146535,6911.401736273398,0.9951273219981184,-4.94220162264697e-05,0.0004803319255533392,0.09859705802689525
1.665,5.660880525435289e-06,0.0005361587246157088,-0.00676706049737366,-43.124120669830475,45.868220742250045,4.525375844554609,-1656525.7995684051,5089041.089870809,3602641.396423389,-147.87132503593202,-4939.41497212139,6911.565985763071,0.9951289834993662,-4.9562416848102196e-05,0.0004817077180639927,0.0985802804863095
1.67,4.271558780861874e-06,0.0005432854600118282,-0.006778457523599565,-43.1015545434086,45.83337099295476,4.52636184425372,-1656526.5382511402,5089016.392796287,3602675.9546636613,-147.60176900315548,-4939.414836349571,6911.730123171554,0.9951306504578923,-4.968861963207145e-05,0.0004830421423594067,0.09856344515377899
1.675,2.4942099359843572e-06,0.0005555894317793807,-0.006744990972249251,-43.07820509245903,45.806701488152484,4.519672958285148,-1656527.2755865182,5088991.695722525,3602710.5137243383,-147.3323822216361,-4939.414668525444,6911.894147499269,0.9951323199288596,-4.982004864541899e-05,0.0004843939528409355,0.09854658143977907
1.68,-1.671242454470833e-05,0.0005339142739956958,-0.006741817857009888,-43.06133367209901,45.76480036533737,4.522068562143534,-1656528.0115753333,5088966.998649555,3602745.073604885,-147.0631437875925,-4939.414519338471,6912.058071173118,0.9951339808534257,-4.9958890146074355e-05,0.00048577593967217365,0.09852980095716977
1.685,3.522035779135934e-06,0.0005537030441314473,-0.006739163817694257,-43.05160518598837,45.735801089263795,4.514577687442633,-1656528.7462183512,5088942.301577495,3602779.634304694,-146.79406336193213,-4939.41430462648,6912.221852403056,0.9951356407356263,-5.014017159293498e-05,0.00048709927148097096,0.09851302836659402
1.69,1.1830882620807723e-05,0.0005371606119230548,-0.006729985623658638,-43.01626944407035,45.703440414120394,4.511650005345162,-1656529.4795161926,5088917.604506538,3602814.1958231004,-146.5250731618003,-4939.414078529295,6912.385510160785,0.9951372996581986,-5.027598334112825e-05,0.000488476818154256,0.09849626232356364
1.695,-1.1548077400121646e-05,0.0005540777630290707,-0.006735063966239567,-43.009390420788876,45.67211857769296,4.509223112277577,-1656530.2114696256,5088892.907436673,3602848.7581595364,-146.25630007640063,-4939.413867521991,6912.549064299373,0.9951389560580337,-5.038703933876532e-05,0.000489815256839375,0.0984795190782703
1.7,-1.331816965300197e-05,0.0005369895509239189,-0.006743211892517932,-42.993450376730046,45.64389110684845,4.505996008750889,-1656530.9420794134,5088868.210367969,3602883.321313441,-145.98761504603127,-4939.413613955776,6912.71249737277,0.995140613400721,-5.0560429807592e-05,0.0004911900261634916,0.09846276319725111
1.705,9.769894054173347e-06,0.0005341328448401935,-0.006723331078505106,-42.972775595732415,45.60150794864197,4.5030381898871585,-1656531.6713460817,5088843.513300568,3602917.8852842515,-145.71905223681426,-4939.413346609478,6912.875827055617,0.9951422724855138,-5.073402761269248e-05,0.0004925218456622385,0.09844598702160272
1.71,-1.783233784049656e-06,0.0005208717597641949,-0.006712258276581215,-42.948914097115846,45.57609191950036,4.497218534483168,-1656532.3992703583,5088818.816234597,3602952.4500713204,-145.45065844040354,-4939.413041471475,6913.039000383713,0.9951439264000216,-5.0849458075403395e-05,0.0004938522427877181,0.09842926025041242
1.715,5.378167165865323e-07,0.000537803683454624,-0.006704090982216905,-42.93674694405449,45.53608938796723,4.495696900859397,-1656533.1258530396,5088794.119170105,3602987.0156740234,-145.18241409675016,-4939.412755379633,6913.202080882341,0.9951455773222975,-5.0990354218377176e-05,0.0004951468065454179,0.09841256101481699
1.72,-1.013090429180188e-05,0.0005294393575072274,-0.0067450058524733585,-42.91472053701631,45.50820906410759,4.483523548897775,-1656533.8510948203,5088769.422107182,3603021.5820917552,-144.914298115806,-4939.412413925465,6913.365011782753,0.9951472259328733,-5.11296315639651e-05,0.0004964840665778739,0.0983958820654565
1.725,-1.0090372933340786e-05,0.0005259012121980613,-0.006708682664980995,-42.900366547461225,45.47304362196232,4.4881777030715435,-1656534.5749963643,5088744.725045879,3603056.149323836,-144.64631953232228,-4939.412107102735,6913.52782054331,0.9951488843340794,-5.129344451119352e-05,0.0004977978875042767,0.09837910131162392
1.73,1.5568255354251325e-05,0.0005470485130856808,-0.006724543665600906,-42.875643901514316,45.440623374886954,4.477057569609231,-1656535.2975583593,5088720.027986271,3603090.7173696836,-144.3784784756434,-4939.411736212574,6913.69051843183,0.9951505335229099,-5.145624120407945e-05,0.0004991029204620861,0.09836241089764879
1.735,-4.181100621072388e-06,0.0005231977184044726,-0.0067120324878316585,-42.86308123203482,45.39686345757429,4.475847775927657,-1656536.0187815463,5088695.330928453,3603125.2862286814,-144.1107963388321,-4939.41139084832,6913.853080828417,0.9951521863065895,-5.156042242771642e-05,0.0005004668727186492,0.09834568096081846
1.74,-5.117289648066627e-07,0.0005150305338815621,-0.006704392274585951,-42.844225705116294,45.380196453510756,4.468019743221183,-1656536.7386666657,5088670.633872524,3603159.8559000823,-143.84325141019843,-4939.410980983789,6914.015479557226,0.9951538357590025,-5.170785796347028e-05,0.0005017666328600084,0.09832898215016794
1.745,1.4907336176369277e-05,0.0005259692925148224,-0.00668118473723507,-42.82235458385932,45.345012039578265,4.47991069164802,-1656537.4572143324,5088645.936818551,3603194.4263833095,-143.57581525136513,-4939.410608007629,6914.177811283971,0.9951554830624346,-5.184414725003995e-05,0.0005030469768484849,0.0983123023161183
1.75,1.3714499799959304e-05,0.0005288006062602232,-0.006714616177119399,-42.80118321028941,45.301387536693866,4.473594803746113,-1656538.1744252697,5088621.239766637,3603228.9976779837,-143.30855966995705,-4939.410157673459,6914.340058304359,0.9951571243698532,-5.1944734954119e-05,0.0005043583278267765,0.09829568017133965
1.7550000000000001,1.2420495689133035e-06,0.0005278074574529506,-0.006676010739988713,-42.783780471599,45.27030055307826,4.469660965967515,-1656538.8903003517,5088596.542717041,3603263.5697834664,-143.0414731076189,-4939.40968078186,6914.502134804748,0.9951587736082004,-5.204902821092849e-05,0.0005056764251997608,0.09827897482612646
1.76,1.8628236137339644e-05,0.000537907662562596,-0.006686652147726989,-42.755429937989106,45.23545003640941,4.45853681536287,-1656539.6048403329,5088571.845669867,3603298.142699042,-142.77451941974277,-4939.409189189045,6914.664095396202,0.9951604130803705,-5.218405880498684e-05,0.0005069889921526968,0.09826236551545217
1.7650000000000001,2.9757434448776325e-05,0.0005275227569349519,-0.006676338541753141,-42.736856508053314,45.199691885459245,4.455733719842714,-1656540.3180459945,5088547.148625081,3603332.716424064,-142.50774520619657,-4939.408724844348,6914.825913458742,0.9951620548767134,-5.2278328935690965e-05,0.0005083309569052729,0.09824572967906457
1.77,1.1909942050725327e-06,0.0005234486988380605,-0.006673806000590713,-42.72352438483583,45.16718645438029,4.458537418787179,-1656541.0299181547,5088522.451582687,3603367.2909578495,-142.24111885519164,-4939.408232907402,6914.98760069476,0.9951636938751047,-5.234234687367356e-05,0.0005096498196935205,0.09822911946157753
1.7750000000000001,1.7220168720426979e-06,0.0005041275899734519,-0.006666608174303169,-42.69929609902019,45.1351368624487,4.4512968206772205,-1656541.7404574973,5088497.754542884,3603401.866299805,-141.9746182283831,-4939.407688078805,6915.149181756991,0.9951653319741735,-5.2476431802855e-05,0.0005109515316429191,0.09821251555422886
1.78,-6.441818557586168e-06,0.0005143371890291275,-0.006671896736355742,-42.68417952954833,45.10838724165292,4.437654817998528,-1656542.4496647394,5088473.057505781,3603436.442449358,-141.7082785431033,-4939.407153226376,6915.3106391778065,0.9951669680523296,-5.26044424478618e-05,0.0005122053055320725,0.09819592952883219
1.7850000000000001,-9.6810612822225e-06,0.000534994103168343,-0.006670859686572293,-42.65766149670813,45.064691898536175,4.441771585907784,-1656543.1575405386,5088448.36047128,3603471.0194058786,-141.44204119247019,-4939.406647215111,6915.471969215707,0.9951686051363636,-5.275527715126204e-05,0.0005134824750833251,0.09817933032758412
1.79,7.323171835967614e-06,0.0005280390449709034,-0.006674867574164908,-42.64181998796542,45.04120089166989,4.4382892858284615,-1656543.8640856675,5088423.663439451,3603505.5971687064,-141.17601034201527,-4939.406084242223,6915.633161853707,0.9951702416603712,-5.291923969530898e-05,0.0005148102423419986,0.09816273368038875
1.795,-2.381246451322429e-05,0.0005354187151699731,-0.006647975043200155,-42.623869528293,44.99605606301078,4.432341978998733,-1656544.5693009242,5088398.966410443,3603540.1757372846,-140.91009235222037,-4939.405519048626,6915.794269359106,0.9951718789004347,-5.303919529701845e-05,0.0005161248782139095,0.09814612701341095
1.8,-5.46082596353751e-06,0.0005181450688990242,-0.0066520106636564925,-42.610533831713596,44.97314836817766,4.439182529972624,-1656545.2731869852,5088374.269384356,3603574.755110954,-140.64433199451136,-4939.404915699238,6915.955198512757,0.9951735092505896,-5.3238390173597804e-05,0.0005174502380030046,0.09812958726496203
1.805,-3.0494396054269106e-05,0.0005084942008538385,-0.006624479098159849,-42.59404262528037,44.93689867655603,4.433232107089399,-1656545.9757445287,5088349.572361403,3603609.3352891295,-140.37868544012096,-4939.404265670496,6916.116071710745,0.9951751403387827,-5.3387694955167525e-05,0.0005187371235199086,0.09811303742742314
1.81,-1.0203930953133373e-05,0.0005264885717591016,-0.006629557580988412,-42.56527195598323,44.90575682610127,4.431682489342253,-1656546.6769741776,5088324.875341751,3603643.9162713126,-140.1131741169919,-4939.403595020212,6916.276801482217,0.9951767644074078,-5.3596878794458935e-05,0.0005199938615088054,0.09809655609327707
1.815,1.3250161674512748e-05,0.0004968847688301392,-0.006660197243489679,-42.53846640809996,44.865726702861295,4.425311201457539,-1656547.3768767372,5088300.178325456,3603678.4980568932,-139.8478497547878,-4939.4029232199855,6916.437430748131,0.9951783894259842,-5.376000068691511e-05,0.0005213003436850288,0.09808006206828193
1.82,-1.418104170590864e-06,0.0005205176025784577,-0.0066512660029288545,-42.52642551491711,44.829875240272806,4.420464252732481,-1656548.0754531445,5088275.481312536,3603713.080645241,-139.58271311728788,-4939.402244725873,6916.597908321345,0.9951800217228777,-5.385755112322831e-05,0.000522538919883421,0.09806349175964649
