t_s,gyro_x_radps,gyro_y_radps,gyro_z_radps,accel_x_mps2,accel_y_mps2,accel_z_mps2,ins_pos_ecef_x_m,ins_pos_ecef_y_m,ins_pos_ecef_z_m,ins_vel_ecef_x_mps,ins_vel_ecef_y_mps,ins_vel_ecef_z_mps,ins_quat_w,ins_quat_x,ins_quat_y,ins_quat_z
0.0,-8.190183391823886e-06,0.0006015258271063694,-0.0073854015311370525,-45.30931755793904,51.871442435762546,5.131620391086419,-1656201.7170614246,5097264.758841336,3591181.9960583495,-242.6143302865707,-4938.608152381165,6852.28340073394,0.9945218953682734,0.0,0.0,0.10452846326765354
0.005,1.2661295003992849e-05,0.000614480082443654,-0.007375094823428211,-45.310793341440636,51.86655507829903,5.1466091759618235,-1656202.9294051768,5097240.065789329,3591216.2579393955,-242.3231706116864,-4938.612650218811,6852.469017735645,0.9945238251593135,-1.7755471757200832e-07,1.4934362459221883e-06,0.10451010089089745
0.01,2.4942338824764923e-05,0.0005995762420235456,-0.0073821119845077585,-45.30802613552574,51.86096482975994,5.140554282318115,-1656204.140293199,5097215.372714998,3591250.520748601,-242.0320382367426,-4938.617082049234,6852.654664381216,0.9945257519165667,-3.066507928018593e-07,3.0245287601078253e-06,0.10449176410390423
0.015,1.753327044256471e-05,0.000617648641837887,-0.007393599670701723,-45.316237166328634,51.867183247451166,5.138840588519683,-1656205.3497256108,5097190.679618449,3591284.7844859688,-241.74092647289442,-4938.621537943373,6852.840282648231,0.9945276801663266,-4.013190636940159e-07,4.521773804963575e-06,0.1044734098341643
0.02,7.4650159366110825e-06,0.0006338005330008607,-0.007394928991671689,-45.31784923775349,51.86157348526117,5.141381621007896,-1656206.5577023523,5097165.986499591,3591319.049151483,-241.4497701409824,-4938.6260050572855,6853.02592310333,0.9945296110747025,-5.191289863659503e-07,6.062017464800063e-06,0.10445502696655429
0.025,-1.37581027085781e-05,0.0005798880738444851,-0.007398050147612972,-45.319617841135376,51.85207768102251,5.137196089498933,-1656207.7642233423,5097141.293358445,3591353.3147451794,-241.15862589883952,-4938.630453275061,6853.211555388635,0.9945315419876705,-6.661897376652627e-07,7.639790756424093e-06,0.1044366407580031
0.03,1.8759682362209715e-06,0.0006234381771954328,-0.007386711964792586,-45.331243299766975,51.84795133458505,5.144132804250995,-1656208.969288636,5097116.600195062,3591387.58126693,-240.86749155483813,-4938.634899928969,6853.397144810832,0.9945334733741906,-8.519421103010632e-07,9.07797875934105e-06,0.1044182467537765
0.035,-7.594564825078818e-06,0.0005854921313111266,-0.007371892373640643,-45.32612172434153,51.847531713266676,5.143693501398095,-1656210.1728981833,5097091.907009579,3591421.848716631,-240.5763274039262,-4938.639293143868,6853.582735708674,0.9945354014580404,-1.0101912717226088e-06,1.0628528077851979e-05,0.104399880903708
0.04,1.4098489559987738e-05,0.0006079642165186595,-0.007414341701134839,-45.34041598451972,51.843309149184975,5.141141877926357,-1656211.3750519822,5097067.213802084,3591456.1170943123,-240.2851921127296,-4938.64370494662,6853.768336932191,0.9945373253342134,-1.1820830833449783e-06,1.2082258908901165e-05,0.10438155186473705
0.045,-2.7221924764680298e-05,0.0006129875135952098,-0.007394369071762983,-45.345044012587366,51.84978222065191,5.14569448722068,-1656212.5757499703,5097042.520572585,3591490.386399931,-239.99400308265533,-4938.648094951474,6853.953910396745,0.9945392599451232,-1.3059039738737346e-06,1.3597523815841058e-05,0.104363117245552
0.05,-1.4826793609042902e-05,0.0006124864331263661,-0.007422690951889754,-45.35372806557982,51.8315072939248,5.142137554310636,-1656213.7749919607,5097017.8273211485,3591524.656633526,-239.70279309326548,-4938.652479492978,6854.139527732926,0.9945411890016106,-1.5337717380627402e-06,1.5114497630576618e-05,0.10434473225066136
0.055,-1.3719265952358401e-05,0.0006081099873489407,-0.007399710898206166,-45.34463456492354,51.83000972857775,5.133936150320052,-1656214.9727778907,5096993.134047885,3591558.9277950013,-239.41157893116622,-4938.656825753993,6854.325062382571,0.9945431251027572,-1.7306911879306433e-06,1.6633458885182845e-05,0.10432627680107387
0.06,1.4558837662289439e-05,0.0006022985139821025,-0.007415355717088113,-45.355857793413826,51.82832241575857,5.144593537928555,-1656216.1691078467,5096968.440752753,3591593.1998841194,-239.12040343825714,-4938.661227003956,6854.510584722587,0.994545054866801,-1.923714525808485e-06,1.8141827683916086e-05,0.10430787845203834
0.065,-1.0517522639325255e-05,0.000606877312844052,-0.007398225311382047,-45.35816459273007,51.82526931933482,5.12840846141236,-1656217.3639818558,5096943.74743577,3591627.4729009042,-238.82920023791513,-4938.665566521193,6854.696129209929,0.9945469883675843,-2.0449134961899543e-06,1.9643121043384332e-05,0.10428944116704404
0.07,6.330508003800395e-06,0.0006226489333221863,-0.007413560732419751,-45.36683399872985,51.81390728960716,5.141724515427795,-1656218.5573997998,5096919.05409694,3591661.7468452845,-238.5379773416061,-4938.669965398797,6854.881622955795,0.9945489170584312,-2.229654472110943e-06,2.1149261061186774e-05,0.10427104643974427
0.075,1.738152584191832e-05,0.0005949142147656635,-0.0073954035870602945,-45.37031062000814,51.81709436982845,5.147138505914574,-1656219.7493616412,5096894.360736338,3591696.021717115,-238.24675928231392,-4938.674275263204,6855.067109250917,0.9945508494028619,-2.376617089951394e-06,2.2699007010835516e-05,0.10425261354590974
0.08,3.579637703503483e-06,0.0006096950384042901,-0.007384020213021354,-45.368377695229505,51.8069847114333,5.141826184965563,-1656220.939867371,5096869.667354222,3591730.297516462,-237.95553253815902,-4938.678571148899,6855.252629502081,0.9945527766735035,-2.488873136404722e-06,2.4182674334524492e-05,0.10423422576115832
0.085,-1.361317629937801e-05,0.0006050783323799213,-0.00737293102543437,-45.382841534896755,51.8129605224999,5.13597089124833,-1656222.128917032,5096844.973950604,3591764.574243297,-237.66433189164474,-4938.682876164852,6855.438104416045,0.9945547006351263,-2.6392969285117025e-06,2.5699495920899902e-05,0.1042158662447534
0.09,-4.033341944470794e-06,0.0006032441473526429,-0.007392587036018715,-45.37760844339234,51.80841374520126,5.143949197025566,-1656223.3165104962,5096820.280525425,3591798.8518975168,-237.37305384456354,-4938.687195306458,6855.623583603087,0.994556621367056,-2.8312651571741436e-06,2.7200359244932864e-05,0.10419753426579162
0.095,-2.140046940916655e-05,0.0006115975182383777,-0.007380453858447948,-45.38028627533692,51.79225878288409,5.139683425798559,-1656224.5026476895,5096795.58707871,3591833.1304791756,-237.08182347100097,-4938.691490681558,6855.809079968744,0.994558546878375,-2.998937708362256e-06,2.8699157406148175e-05,0.10417915337791922
0.1,5.805376691045797e-06,0.0006043420759854775,-0.007380077118994799,-45.3875013597208,51.78866263980679,5.136231508773144,-1656225.6873287756,5096770.893610564,3591867.4099881393,-236.7906109667031,-4938.695767769583,6855.994505435734,0.99456046888746,-3.2119665683961922e-06,3.021420220791057e-05,0.10416080262335294
0.105,-6.0340571927936784e-06,0.0006144259619327991,-0.007405312109702798,-45.39637075782304,51.78560544218488,5.1381225652613,-1656226.8705537382,5096746.200121038,3591901.690424176,-236.4993740727961,-4938.7000426502145,6856.179909293078,0.9945623904583333,-3.355461419515634e-06,3.1718291519135976e-05,0.10414245276781536
0.11,1.22574317127566e-05,0.0005999344462179568,-0.007404003774198569,-45.390136578783064,51.784335457858674,5.141719817525181,-1656228.0523224515,5096721.506610202,3591935.9717872175,-236.20811125376892,-4938.7042920545355,6856.365307258621,0.9945643182563654,-3.531021311212602e-06,3.3244370772835735e-05,0.10412404013288606
0.115,-3.7803471893315787e-06,0.0006204611186735318,-0.007393645389404717,-45.39923483589975,51.787897712895045,5.138060228452951,-1656229.2326349523,5096696.81307811,3591970.2540772962,-235.91688900179315,-4938.708544518055,6856.550724345243,0.9945662453720795,-3.6573286495643655e-06,3.473917962481164e-05,0.10410563071370264
0.12,-4.649833033051535e-06,0.0005947991378578558,-0.007403924107927673,-45.40458053464648,51.77314962115246,5.137181248538057,-1656230.4114912262,5096672.1195247285,3592004.537294474,-235.6256205919829,-4938.71280803987,6856.736146698889,0.9945681694473509,-3.828854026371236e-06,3.6280852340694225e-05,0.10408724701511284
0.125,-3.731703747301297e-06,0.0006108023274094724,-0.0073915087568091715,-45.40016558308057,51.759334389176274,5.139312163156746,-1656231.5888911774,5096647.425950115,3592038.8214386185,-235.33435987292012,-4938.717037611855,6856.921511053369,0.9945700958570749,-3.995864529182568e-06,3.775849221651394e-05,0.10406883772377937
0.13,-8.651264660186544e-06,0.0006104593113296713,-0.007385457705239882,-45.40406404000532,51.76508694206036,5.139614326951089,-1656232.7648349586,5096622.732354411,3592073.106509491,-235.04315264857948,-4938.72124365901,6857.10683797581,0.9945720186927284,-4.164754582164564e-06,3.927616180939145e-05,0.10405045926620965
0.135,-3.64703398042544e-08,0.0006270353141514652,-0.007411473884558121,-45.40223372730653,51.75715269723818,5.135231689404665,-1656233.9393226493,5096598.03873765,3592107.3925070725,-234.7519235814927,-4938.7254608644,6857.292194572631,0.9945739396126759,-4.3457869561558884e-06,4.07916988598647e-05,0.10403209581890008
0.14,6.755781457387042e-07,0.0006306909034085291,-0.0073923237971625965,-45.40373075990227,51.75234051930037,5.131693893669124,-1656235.1123542516,5096573.345099777,3592141.679431352,-234.46071732947186,-4938.729688279913,6857.477517142555,0.9945758669546875,-4.509712947758235e-06,4.235069130247066e-05,0.10401366764715765
0.145,6.35267297394955e-06,0.0006021205091676939,-0.007403269840593696,-45.41208982328841,51.73744770003422,5.129732808809443,-1656236.2839298309,5096548.651440749,3592175.967282189,-234.1695144064836,-4938.7339228403935,6857.662817901054,0.9945777889736157,-4.672817022770313e-06,4.3918958505446436e-05,0.10399528705496143
0.15,-4.188553165812256e-06,0.0006134031191897695,-0.007364092479142187,-45.41518889814767,51.73834421632128,5.135445888501165,-1656237.4540493784,5096523.9577606395,3592210.25605937,-233.87830455853404,-4938.738121151736,6857.848054472826,0.9945797134990346,-4.814378551089902e-06,4.541766284435776e-05,0.10397687920992817
0.155,2.9167378925225818e-08,0.0006229219503885588,-0.007399363274675562,-45.42052238560342,51.737814964411655,5.136943537600885,-1656238.6227128704,5096499.264059586,3592244.5457627983,-233.5870922670806,-4938.742299868194,6858.033316856675,0.9945816274980019,-4.9850786800296534e-06,4.694168116734001e-05,0.10395856874280861
0.16,-2.5064998859630074e-06,0.0006055373585789558,-0.007379191777349174,-45.42777120859238,51.732676528612885,5.1347293141005155,-1656239.7899202628,5096474.570337668,3592278.8363925545,-233.29586471378616,-4938.74646770776,6858.218585525951,0.9945835503215643,-5.147769688192516e-06,4.8490463341694234e-05,0.10394017054020963
0.165,-3.2314988393021684e-06,0.0006414350210741025,-0.007376684299600894,-45.42932982423593,51.726946077488755,5.1399202881762385,-1656240.9556714671,5096449.8765949365,3592313.127948593,-233.00461703274112,-4938.750624859946,6858.4038298185615,0.9945854675638724,-5.3122456880590715e-06,4.9995360792157446e-05,0.10392182245802453
0.17,7.081465999810134e-06,0.0006004644826590107,-0.007398920334602521,-45.429977848828834,51.724646417902285,5.1325363913610005,-1656242.1199664727,5096425.182831493,3592347.4204308493,-232.7133852270486,-4938.754752510015,6858.5890728787335,0.9945873838094413,-5.487850432525341e-06,5.158932813434777e-05,0.10390348057459751
0.17500000000000002,-1.5247129413003615e-05,0.000611523242383113,-0.007383803844644508,-45.42893090510589,51.71706410807746,5.133966654731809,-1656243.2828053134,5096400.489047337,3592381.7138392674,-232.42215099599758,-4938.7589099043025,6858.774294260712,0.9945893054947628,-5.62717272731521e-06,5.308410208456581e-05,0.1038850833655082
0.18,-2.9342734756289127e-06,0.0005897469922703986,-0.00738520500502614,-45.430171242261906,51.697602467048995,5.127504459863759,-1656244.4441880481,5096375.795242428,3592416.00817375,-232.13094287724527,-4938.763053780146,6858.959498640477,0.9945912229104698,-5.824884570005467e-06,5.460057451958722e-05,0.10386672371026433
0.185,1.9694159451869854e-05,0.0006009281028457915,-0.007413626754745609,-45.43238100676286,51.697528682985826,5.1333740801642405,-1656245.6041148107,5096351.101416835,3592450.3034340306,-231.83976222034207,-4938.7671834176235,6859.144613787584,0.9945931403519445,-5.986326386479757e-06,5.606609798741363e-05,0.10384836053406835
0.19,1.0017003410535478e-05,0.0006176528473118793,-0.007359370443661674,-45.43466047707053,51.69864345153274,5.129680888773322,-1656246.762585679,5096326.407570645,3592484.599619945,-231.54858504610021,-4938.77129246357,6859.329751979416,0.9945950648285193,-6.094409824248641e-06,5.756529746442575e-05,0.10382992664857321
0.195,-4.961396720740133e-07,0.0006129230416794286,-0.007379660941552532,-45.44442214249465,51.69354182450289,5.117918533496905,-1656247.9196006332,5096301.7137038605,3592518.896731553,-231.25739665068951,-4938.775421181074,6859.514891292922,0.9945969748774945,-6.230888903238602e-06,5.910357167307886e-05,0.1038116276362162
0.2,1.1310045158440351e-06,0.0005952928451313001,-0.0073718437645288295,-45.44391648889227,51.67998218358829,5.129994571620352,-1656249.0751595362,5096277.019816379,3592553.1947687254,-230.9661645395991,-4938.779571705051,6859.699977494809,0.9945988898530225,-6.392284307005455e-06,6.06273564532938e-05,0.10379327813783357
0.20500000000000002,5.794362347996343e-06,0.0005993424853436797,-0.007400444108388026,-45.450694865460434,51.668083082142616,5.132462497461784,-1656250.2292623993,5096252.325908319,3592587.4937312985,-230.6749806607772,-4938.783651956135,6859.885051733917,0.994600802462379,-6.545057894430241e-06,6.210772611947109e-05,0.10377494804134742
0.21,-7.028195325774762e-07,0.0005882169826409138,-0.0073876099816168085,-45.453894471370376,51.65732885843089,5.126607703709639,-1656251.3819093434,5096227.631979968,3592621.7936191466,-230.38379706037384,-4938.787688589743,6860.070087629235,0.9946027221498333,-6.6872910998054186e-06,6.359937458415507e-05,0.10375654679364285
0.215,-1.5703470860870817e-05,0.0005866345099003261,-0.007380189810408543,-45.45108465017359,51.65854328066974,5.123129853016201,-1656252.5331003787,5096202.938031436,3592656.09443204,-230.09261701440062,-4938.791724425321,6860.255069653245,0.9946046381678403,-6.842791689837182e-06,6.506167429046485e-05,0.10373817742361884
0.22,-4.227827085646979e-06,0.0005962487777918743,-0.007387824897929752,-45.444605634781134,51.64842261393067,5.121261979722577,-1656253.6828355426,5096178.24406265,3592690.3961698595,-229.80144857477433,-4938.79578980537,6860.440058108783,0.9946065519203908,-7.035179956981596e-06,6.651614891400832e-05,0.10371982647082961
0.225,8.989580070740897e-07,0.0006051870989682446,-0.007389749110199347,-45.44691557309165,51.64925504986282,5.116807839858173,-1656254.8311149913,5096153.550073525,3592724.6988325412,-229.5103309157678,-4938.799860075502,6860.625014639128,0.9946084673102096,-7.201528090632695e-06,6.799750504449676e-05,0.10370145649562125
0.23,-1.652852214367403e-05,0.000592668448996909,-0.007383170260560486,-45.447103969072224,51.634647051984835,5.136828291732904,-1656255.9779388222,5096128.856063995,3592759.0024200003,-229.2192014033205,-4938.803952310631,6860.809968946225,0.9946103828558427,-7.357445981568566e-06,6.950241557950263e-05,0.10368308169916751
0.23500000000000001,1.8266260024966254e-05,0.000578545430099883,-0.007380301124914342,-45.4471197533944,51.63147837458785,5.119214786338946,-1656257.1233071485,5096104.162034266,3592793.306932244,-228.92812910073343,-4938.807939138202,6860.994928660431,0.9946122963566502,-7.553451678104371e-06,7.097168092644069e-05,0.10366472322886428
0.24,-5.047084239095042e-06,0.0006185395509888523,-0.007355681580985179,-45.45788387010175,51.61614362025625,5.120650787253306,-1656258.2672200853,5096079.46798443,3592827.6123691536,-228.6370456407922,-4938.811995407934,6861.17983507284,0.9946142087761883,-7.659278420389233e-06,7.241484646125438e-05,0.10364637185132135
0.245,1.3902574304685691e-05,0.0006060896303648998,-0.007380249063771757,-45.45664330942673,51.61226325053123,5.123010707718031,-1656259.4096775732,5096054.773914451,3592861.9187304485,-228.34594955828572,-4938.815996067701,6861.364682927271,0.9946161144690239,-7.833433275467243e-06,7.395141838613762e-05,0.10362808165920434
0.25,1.5036611775075528e-05,0.0006191622804926525,-0.007380768572986891,-45.4620672905331,51.59574839702288,5.123995214071201,-1656260.5506796343,5096030.07982449,3592896.2260159845,-228.0548748274612,-4938.8199883335865,6861.549531506726,0.994618026189436,-7.957248177013476e-06,7.546194186735451e-05,0.10360973034038881
0.255,2.2460128476975662e-05,0.0006131158252502439,-0.007375441251445271,-45.46739728876784,51.5947323842478,5.116474844137544,-1656261.6902263537,5096005.385714681,3592930.5342256133,-227.76381294659564,-4938.823935058044,6861.734320057295,0.9946199377010182,-8.081629472951746e-06,7.700526478932577e-05,0.10359137769379914
0.26,-1.2823812506721427e-05,0.0006089207538791517,-0.007394170041301122,-45.47357748286063,51.59369482452566,5.119248007696526,-1656262.828317699,5095980.69158508,3592964.843359133,-227.4727251454813,-4938.827905341472,6861.919087755805,0.9946218474934932,-8.185984894667514e-06,7.853547551101468e-05,0.10357303825706231
0.265,1.9783415181177304e-05,0.0006049417565766721,-0.007364823282926991,-45.45997101016205,51.57837238401984,5.123636536496761,-1656263.9649535639,5095955.997435675,3592999.153416509,-227.18162084697437,-4938.831856798004,6862.103862566736,0.994623761794228,-8.37699319646233e-06,8.004611838595042e-05,0.1035546522216357
0.27,1.566619614632899e-05,0.0006182781427659892,-0.007374837882477848,-45.46649190263574,51.574002831321,5.115929961967959,-1656265.1001341578,5095931.303266555,3593033.464397685,-226.89061673753991,-4938.835791265339,6862.288607948528,0.994625668158139,-8.485885704787772e-06,8.155530941019746e-05,0.10353633911674098
0.275,8.75262158987813e-06,0.000578005057983219,-0.0073839399736413845,-45.46178141326734,51.5661824634988,5.10190440746933,-1656266.2338596678,5095906.6090777265,3593067.7763024983,-226.5995872403967,-4938.839739902412,6862.473317314538,0.9946275767714627,-8.608469982913016e-06,8.309659626970491e-05,0.10351800107506913
0.28,4.4819878824589355e-06,0.0005990562520614717,-0.007358604229103046,-45.471983132777524,51.55785862212315,5.110181504425572,-1656267.366130088,5095881.91486902,3593102.089130713,-226.30858082561488,-4938.8437428797115,6862.657968599454,0.9946294874078343,-8.737824755653857e-06,8.453595190450038e-05,0.10349964036725919
0.28500000000000003,8.95658919495341e-06,0.0006080374870803736,-0.00737027683912033,-45.4640935140489,51.55078660353922,5.118243115438918,-1656268.4969454408,5095857.220640462,3593136.4028821583,-226.01756024622117,-4938.847680458958,6862.842609379369,0.9946313911441335,-8.883240394035601e-06,8.602654838715636e-05,0.10348134262371597
0.29,-1.7073982794088674e-06,0.0005910511880523403,-0.007374954912552241,-45.47126617122618,51.5457328779685,5.116910764938445,-1656269.626305851,5095832.526392276,3593170.7175568305,-225.72660389230757,-4938.85159357866,6863.0272595428905,0.9946332975589298,-9.019855568092734e-06,8.754063472130989e-05,0.10346301581883752
0.295,7.90589102613536e-07,0.000596838690215676,-0.007342790577859146,-45.461528469026,51.5280366491713,5.116599956605026,-1656270.7542114323,5095807.83212456,3593205.0331546995,-225.4356286447807,-4938.855492849111,6863.211888186497,0.9946352048470883,-9.178595021124158e-06,8.900972475273988e-05,0.10344467734887577
0.3,1.9310184883045087e-06,0.0006235337879678467,-0.007360282200951672,-45.468162099328865,51.52769792288421,5.10941957191296,-1656271.8806623404,5095783.137837377,3593239.3496755734,-225.14473454598414,-4938.859380229497,6863.396461287809,0.9946371034771081,-9.332612563941925e-06,9.049385263415175e-05,0.10342641882243467
0.305,2.4737005556557413e-06,0.0006114566647013332,-0.0073836951704825595,-45.470980520084325,51.52250498524907,5.11690989682967,-1656273.0056586962,5095758.443530706,3593273.667119267,-224.85380783735306,-4938.863288681834,6863.581016059794,0.9946390062855684,-9.490700723244681e-06,9.204465478975437e-05,0.103408116765393
0.31,-7.300362162153523e-06,0.000614215480146796,-0.00737041316162488,-45.47293638046672,51.5055454761816,5.112086626930812,-1656274.129200449,5095733.749204591,3593307.98548575,-224.5628932748076,-4938.867157140107,6863.765577123502,0.994640914809334,-9.644322653579847e-06,9.356556570798133e-05,0.10338975645451058
0.315,1.1882817201544072e-05,0.0006178869820457709,-0.007383138444172557,-45.475436560925026,51.501073526329336,5.112609296763656,-1656275.2512876831,5095709.054859175,3593342.30477485,-224.27200040373225,-4938.871009073414,6863.950063071086,0.9946428195585164,-9.822958763618492e-06,9.509081064628705e-05,0.10337142913751278
0.32,-2.4016492874797923e-06,0.0006187055619859856,-0.007372464143960629,-45.47026908054218,51.499882561812726,5.1179788337367915,-1656276.3719204613,5095684.360494525,3593376.624986355,-223.9811108526318,-4938.874850807939,6864.134539023723,0.9946447272552303,-9.954845687409434e-06,9.66301423036932e-05,0.10335307013768474
0.325,1.030195058897811e-05,0.0006215930780294103,-0.007363360794526943,-45.47517033965797,51.487309963418426,5.11232567723332,-1656277.4910988866,5095659.666110682,3593410.946120299,-223.6902591879503,-4938.878686514974,6864.319038403235,0.9946466318525818,-1.0122461459202289e-05,9.816781882553374e-05,0.10333473764872043
0.33,4.6159961945094335e-06,0.0006029666822569012,-0.007356241375451813,-45.46749556838015,51.47469982527151,5.108135653433045,-1656278.608823052,5095634.971707684,3593445.268176584,-223.39940695153092,-4938.882512907236,6864.503475620888,0.9946485337579521,-1.0259231963105922e-05,9.971595749737009e-05,0.10331642775779624
0.335,-8.187728705489074e-06,0.0006109789399649982,-0.007355704901276585,-45.462685056575914,51.46151736551865,5.109043237623681,-1656279.7250931002,5095610.2772855265,3593479.5911549362,-223.10861237146335,-4938.886350003748,6864.687865322399,0.9946504334898763,-1.0405328472535819e-05,0.00010121631089346493,0.10329813553684752
0.34,-1.7359461294039626e-05,0.0006202097592415008,-0.007368823471076625,-45.47128119106591,51.45297695716316,5.1111287122857085,-1656280.8399093065,5095585.582844225,3593513.9150551422,-222.81787018701405,-4938.890170515407,6864.8722169741295,0.9946523327422268,-1.058533204718058e-05,0.00010273328125578241,0.10327984461776865
0.34500000000000003,1.7667962001970338e-05,0.0005949803786400665,-0.007364921678393776,-45.47240890045181,51.44308158155691,5.103067143542516,-1656281.9532717655,5095560.888383917,3593548.2398770377,-222.52711343343003,-4938.893952801801,6865.056541285455,0.9946542350398593,-1.0790529094488298e-05,0.00010427083673791526,0.10326152104452829
0.35000000000000003,-6.430896055744974e-06,0.0006124510528657126,-0.007365729759609591,-45.471291675727635,51.43468806767108,5.09985280202509,-1656283.0651804616,5095536.193904662,3593582.5656204177,-222.23636500888932,-4938.897749159908,6865.24081075931,0.9946561359980736,-1.0902111623153773e-05,0.00010575469847656201,0.10324320712991007
0.355,-6.735376151409975e-06,0.0006039024818352079,-0.007373648547295193,-45.47621185743079,51.42503771026962,5.106673741712313,-1656284.1756354703,5095511.499406418,3593616.892285062,-221.94563843581835,-4938.901548515264,6865.425046951888,0.9946580368200787,-1.1078128875410036e-05,0.00010727578333189529,0.10322489117653982
0.36,-7.1292003504719245e-06,0.0005796907156076828,-0.0073670957758001435,-45.479216869882855,51.41282716550965,5.104763818190697,-1656285.284636871,5095486.804889306,3593651.2198708486,-221.6549218398686,-4938.9052960171875,6865.609267685512,0.9946599393479694,-1.1252699318288856e-05,0.00010877553209424706,0.10320655549699488
0.365,6.012636115355788e-06,0.0006031147239543366,-0.007358829057520836,-45.47689516276463,51.40698127809813,5.10467542311582,-1656286.3921847187,5095462.110353506,3593685.5483776173,-221.36421726517844,-4938.909024189287,6865.7934397937,0.9946618398518303,-1.1422000245759859e-05,0.00011021497320585736,0.10318823607742018
0.37,-1.5368504454939785e-05,0.000610549496832166,-0.007336185661410252,-45.466599267476084,51.39933497713417,5.103022399128922,-1656287.49827911,5095437.415799067,3593719.877805214,-221.07353927758925,-4938.912751376421,6865.977598696093,0.9946637378778428,-1.1564662388716568e-05,0.00011171605214133995,0.10316993717483935
0.375,-1.087135982815387e-05,0.0005742283260561993,-0.007360892269396323,-45.48114821122404,51.38826816401986,5.101916981080104,-1656288.6029202705,5095412.721225948,3593754.2081535594,-220.78292485400922,-4938.916496005217,6866.161739505335,0.9946656297229641,-1.1762403429287984e-05,0.00011323010471365773,0.10315169454937927
0.38,3.341942714040071e-05,0.0006146322047758365,-0.007355644024920051,-45.46684540710855,51.3782855757564,5.0985680411329986,-1656289.7061082567,5095388.026634216,3593788.53942248,-220.49226968611276,-4938.920196940224,6866.345828720296,0.9946675276119289,-1.1939602095930283e-05,0.00011465499769070963,0.1031333904516387
0.385,3.5802736904481074e-06,0.0005952257978141533,-0.007348590223664509,-45.47345630640651,51.36286210654681,5.108293713162385,-1656290.8078431762,5095363.332023911,3593822.871611774,-220.2016980798599,-4938.923924951991,6866.529888995665,0.994669423798662,-1.2017080207743955e-05,0.00011619178149830123,0.10311509935551376
0.39,-6.6032895399304075e-06,0.0005990431456563772,-0.007353047447823611,-45.478335875353835,51.36693223607641,5.093852577945242,-1656291.9081252792,5095338.637395167,3593857.204721289,-219.91114311007436,-4938.927572922881,6866.713917089343,0.9946713178334389,-1.2163753766447732e-05,0.00011767261591103342,0.1030968257740684
0.395,-1.9238007907638294e-05,0.0006080657168930588,-0.007349812996783059,-45.47767188820013,51.33988732847025,5.100116250381534,-1656293.006954502,5095313.942748024,3593891.5387508967,-219.62054601994257,-4938.9312842743975,6866.897925946366,0.9946732126774641,-1.233673576900978e-05,0.00011916031793163325,0.10307854107677308
0.4,-2.0055396388381395e-05,0.0005979099760212387,-0.007340838103611989,-45.469045807869,51.342856941221285,5.094212812932698,-1656294.104330904,5095289.248082519,3593925.8737003417,-219.33001482483218,-4938.934917694655,6867.0818519351515,0.9946751063466667,-1.254346042730053e-05,0.00012066720036542419,0.10306026439096591
0.405,-4.300256616182924e-07,0.0006137126849170098,-0.0073574610505269785,-45.47195188979095,51.32792856607877,5.099353295487467,-1656295.2002547286,5095264.553398709,3593960.2095694453,-219.03951491528167,-4938.938606140481,6867.265789560891,0.9946769973688414,-1.2749598330481675e-05,0.0001221486182824308,0.10304200998849332
0.41000000000000003,1.9609937672631036e-06,0.0005953765727644936,-0.007359178283323646,-45.474460730187594,51.31392270506452,5.102967866774696,-1656296.2947261194,5095239.85869659,3593994.5463581374,-218.74904139508055,-4938.942241427545,6867.449687277951,0.9946788923309213,-1.291100990066258e-05,0.00012367438769978427,0.10302371420834701
0.41500000000000004,7.734143577719132e-06,0.0005723479681846448,-0.007342097514626807,-45.46909530936031,51.30247789410744,5.091286024448682,-1656297.387745204,5095215.163976406,3594028.884066218,-218.45859242840757,-4938.945832478476,6867.633544940805,0.9946807874021596,-1.3061753620054373e-05,0.00012515517648951932,0.10300541412271604
0.42,8.540815206120938e-06,0.0006093447412109005,-0.007345720625457248,-45.474721091332086,51.296255497262905,5.090204294754891,-1656298.4793121323,5095190.46923817,3594063.2226934223,-218.16817898638146,-4938.949461662956,6867.817336842704,0.994682677744239,-1.3192205710264276e-05,0.0001265801871823651,0.10298715647580746
0.425,-6.570837902623736e-06,0.0005882118582406504,-0.00733861541144269,-45.470541780889064,51.278985738329915,5.086862235692068,-1656299.5694269696,5095165.774481825,3594097.562239526,-217.87775592360222,-4938.953076508486,6868.001104451795,0.9946845686700102,-1.3330178467921584e-05,0.00012809740552796703,0.10296888978286937
0.43,8.462629494504368e-07,0.0006134149952994834,-0.007320643970490957,-45.469267540110884,51.26559950622464,5.091918375232791,-1656300.6580898203,5095141.079707432,3594131.9027042994,-217.58738436001192,-4938.956680818759,6868.184804974101,0.9946864574356451,-1.350028719230092e-05,0.00012955818261009758,0.10295064072916857
0.435,2.3863614181036783e-06,0.000598844773150601,-0.0073247567111086685,-45.46879981346859,51.26189141515356,5.094503724386748,-1656301.7453009186,5095116.384915118,3594166.2440874996,-217.29705496560774,-4938.960244413681,6868.3684751511555,0.9946883412317052,-1.3658432564604904e-05,0.0001310835422909832,0.10293243632728673
0.44,-7.888409458275643e-07,0.0005806210207281356,-0.007360125088767391,-45.46372992300867,51.25064746610696,5.08648216785868,-1656302.8310604144,5095091.690105014,3594200.586389054,-217.006743348913,-4938.963797450593,6868.552146656959,0.9946902257552875,-1.3809000113936073e-05,0.0001325730660271739,0.10291422166342698
0.445,1.671866373313809e-05,0.0005862305830438893,-0.0073838149404640485,-45.46894557011297,51.24096541515415,5.082295481996971,-1656303.9153684485,5095066.995277085,3594234.9296088284,-216.71647022267538,-4938.967373993719,6868.735763154448,0.9946921190472507,-1.396278652947138e-05,0.00013401645409267466,0.1028959190148993
0.45,-6.537839022295428e-07,0.0006083572515609588,-0.007379709217563,-45.45819677745462,51.233227278183726,5.086939189149344,-1656304.998225103,5095042.300431296,3594269.273746569,-216.42619162468264,-4938.970941386468,6868.919333008016,0.9946940180919411,-1.4074487437663662e-05,0.00013547829438095355,0.1028775574148692
0.455,4.002599413330427e-07,0.0006042041682257246,-0.0073337092233856085,-45.46117106915649,51.22275193002556,5.078691264887245,-1656306.079630549,5095017.605567688,3594303.618802157,-216.1359868435453,-4938.974502116919,6869.102902370251,0.9946959157315817,-1.4235078468821635e-05,0.00013699068984184093,0.10285920599452349
0.46,-5.871352940341313e-06,0.0005996917110714522,-0.007333380743970667,-45.46276905829144,51.21078068014214,5.081470777087964,-1656307.1595849735,5094992.910686252,3594337.9647754445,-215.84578288195755,-4938.978072497605,6869.2864124529215,0.9946978012051231,-1.43919646513032e-05,0.00013849303030081435,0.10284096892895087
0.465,1.4048844160482076e-05,0.00060734043316393,-0.00736095625690582,-45.471607493020535,51.1924588436291,5.083885178620228,-1656308.2380884376,5094968.215787049,3594372.3116661985,-215.55560272337075,-4938.981608425271,6869.469889132958,0.9946996862589473,-1.4563286450375865e-05,0.00013998253694985486,0.10282273264775547
0.47000000000000003,7.824071602730894e-06,0.0005823495687597655,-0.007333933693499069,-45.456115073169585,51.18622706275779,5.086147556793247,-1656309.3151410068,5094943.520870323,3594406.65947417,-215.2654250197151,-4938.98508192799,6869.653299480414,0.9947015780614354,-1.4687047516481206e-05,0.00014149618362378766,0.10280442775100067
0.47500000000000003,-9.9564100508341e-06,0.0005999370667893116,-0.007347275445266385,-45.458909070902244,51.17266574489869,5.077448231998904,-1656310.3907429108,5094918.82593619,3594441.0081992005,-214.97533656319777,-4938.988571311622,6869.836712784139,0.9947034625896165,-1.4819855567556026e-05,0.0001429460852757724,0.10278619002091707
0.48,-5.692572241123472e-06,0.0005854894740377691,-0.007375025042253091,-45.45947128371762,51.16417233949648,5.075718282453366,-1656311.464894389,5094894.130984598,3594475.3578411154,-214.68525471037557,-4938.992065396854,6870.0200531107985,0.9947053502020552,-1.5001403527935089e-05,0.00014443515327805016,0.10276791908397849
0.485,6.206274272647449e-06,0.0005909571434942659,-0.007340328508394901,-45.45416633427104,51.150016421085276,5.080197386949415,-1656312.5375954986,5094869.436015553,3594509.7083996544,-214.3951891835085,-4938.995552910724,6870.203362417128,0.9947072446102329,-1.5168646474934543e-05,0.00014588938791021798,0.10274957910433095
0.49,5.31211060751999e-06,0.0005864826224079658,-0.007300592606666122,-45.450809596317015,51.136860880693035,5.079242177277915,-1656313.608846433,5094844.741029149,3594544.0598746603,-214.1051845234455,-4938.999008533207,6870.3866400791,0.9947091297655231,-1.530769159189077e-05,0.00014736027713818423,0.10273132536738275
0.495,-5.399703609335376e-06,0.0005915030978700005,-0.007335789188645755,-45.448086579011054,51.128921718940084,5.072335082800722,-1656314.6786474523,5094820.046025498,3594578.412265944,-213.8152231974587,-4939.00245190869,6870.569873280149,0.9947110043818055,-1.5447796463156606e-05,0.00014881981107315293,0.102713170410465
0.5,8.948375727059205e-06,0.0005986769438948006,-0.00733790982145613,-45.44922081170274,51.106181473845474,5.07196554482452,-1656315.7469987234,5094795.351004575,3594612.765573292,-213.52528522046225,-4939.005917086156,6870.75306595704,0.9947128876985746,-1.561584149516075e-05,0.00015028907779318561,0.10269492789666661
0.505,5.479844747390436e-06,0.0006005865505010244,-0.007342755834903765,-45.442691925423176,51.10507949005092,5.074836272856759,-1656316.8139004079,5094770.655966441,3594647.1197963897,-213.23538862215935,-4939.009336549216,6870.93617310288,0.9947147712207973,-1.575004856407587e-05,0.0001517798678597033,0.1026766800688679
0.51,-2.321395731749489e-05,0.0005968987707299034,-0.0073340994266816945,-45.43976226587299,51.07959013021149,5.078582982166268,-1656317.879352711,5094745.960911193,3594681.4749350674,-212.94553255698798,-4939.012762761784,6871.119298078263,0.9947166556488812,-1.5893373144135008e-05,0.0001532745161255868,0.1026584201564998
0.515,-2.97623875279505e-06,0.0006053111046113418,-0.007338606425802581,-45.44046477187906,51.07319023253578,5.070723109698438,-1656318.9433559082,5094721.265838963,3594715.830989166,-212.6557463452766,-4939.016129087622,6871.302341331476,0.9947185375185746,-1.6107103454741796e-05,0.00015475262979261633,0.10264018174717408
0.52,2.2509176226582578e-06,0.0005851970015266647,-0.00732412664175055,-45.437714363864146,51.055598055650776,5.065334435599474,-1656320.0059101842,5094696.570749847,3594750.187958381,-212.3659641298781,-4939.019517494898,6871.485344766242,0.9947204202054668,-1.6272667027776176e-05,0.00015625685599466316,0.10262193208693221
0.525,1.20094281816433e-07,0.0006128890552092273,-0.007314439420954065,-45.433417753544724,51.05293562977519,5.072436152083031,-1656321.067015657,5094671.875643804,3594784.5458424254,-212.07622488761348,-4939.022899715345,6871.668272817362,0.9947222988492094,-1.6420065670592566e-05,0.00015771240401247667,0.1026037183991076
0.53,9.830884079067626e-06,0.0006007750981541847,-0.007305520355514367,-45.43897062746961,51.04022216227306,5.068206448999762,-1656322.12667253,5094647.180520895,3594818.904641163,-211.7865244185502,-4939.02626384466,6871.85122227268,0.9947241746617942,-1.6579862701303097e-05,0.0001592362705570426,0.10258552876663826
0.535,-4.1758615629120455e-06,0.0005906966404969334,-0.007349003488835645,-45.43360573537709,51.024606475566166,5.071943111640269,-1656323.184880897,5094622.485381207,3594853.2643544995,-211.49682234064977,-4939.029611264517,6872.034112340773,0.9947260478576846,-1.6712400490708985e-05,0.0001607325027691858,0.1025673612763332
0.54,9.737995023780999e-06,0.000596170009487176,-0.007317094446147087,-45.431785004475586,51.00288499340444,5.062196417823992,-1656324.2416409105,5094597.790224863,3594887.624982187,-211.2071830236967,-4939.032926375627,6872.216962733686,0.99472793187092,-1.6877203632170545e-05,0.00016220007826203266,0.10254908562291933
0.545,-4.051416374191257e-06,0.0006240982240310197,-0.0073380952921508116,-45.43042935316477,50.990357624904,5.056424494177929,-1656325.296952829,5094573.095051944,3594921.986523864,-210.91758441043655,-4939.036241132189,6872.399708008755,0.9947298073654108,-1.700879579679674e-05,0.00016368483346206386,0.10253088928098146
0.55,9.845960739521716e-06,0.0006170261593669393,-0.007327714927592016,-45.425154034095556,50.9866712581075,5.0626289678035,-1656326.3508168221,5094548.399862442,3594956.3489791243,-210.62801279769053,-4939.039559890936,6872.582396171198,0.9947316878948419,-1.7181847157516145e-05,0.00016523550568093177,0.10251264068343348
0.555,-1.2020759560353213e-05,0.0006078556266326464,-0.007321982090111461,-45.42632289253167,50.96373868977312,5.0643105812167715,-1656327.4032330667,5094523.704656383,3594990.7123478646,-210.33848506479777,-4939.0428637453115,6872.7650999296675,0.9947335654307987,-1.7318521380852154e-05,0.0001667721529147733,0.10249441785994381
0.56,1.6275590584357737e-05,0.0005893989270144186,-0.0073179980085022805,-45.42307566590167,50.96136571129939,5.053613718277753,-1656328.454201783,5094499.00943394,3595025.0766299223,-210.04900148565827,-4939.046113212461,6872.947723083273,0.9947354411647721,-1.7507222288739665e-05,0.00016828039170678244,0.10247620926797259
0.5650000000000001,4.877852734014613e-06,0.0005897726329233156,-0.007345865759933755,-45.42476934441923,50.94662279701847,5.055308848137859,-1656329.5037231084,5094474.314195124,3595059.4418250252,-209.7595286186796,-4939.049413231026,6873.130318152767,0.9947373155517089,-1.7620824627232544e-05,0.00016974998104009098,0.10245801053812496
0.5700000000000001,-1.6685502870018782e-05,0.0005984529715952913,-0.007320385151382666,-45.418355598442055,50.933763962009635,5.064895213556296,-1656330.5517971367,5094449.6189399,3595093.8079329845,-209.4700826797464,-4939.0526764717515,6873.312865419233,0.9947391967397932,-1.7762878896925626e-05,0.00017121757896253523,0.10243974247572023
0.5750000000000001,1.1467807637691077e-05,0.0005939271183109803,-0.007316278514525811,-45.41135781418332,50.91439016074259,5.0564298237052965,-1656331.59842411,5094424.923668477,3595128.1749536516,-209.18070669393566,-4939.055892849456,6873.495401460204,0.9947410710611164,-1.7960770070520393e-05,0.00017270124227988513,0.1024215377539049
0.58,-1.1913347159370715e-05,0.0006013530754986352,-0.007307477998174028,-45.41450891693749,50.907068143662,5.060125981210114,-1656332.6436043566,5094400.228380945,3595162.5428867796,-208.89139192375447,-4939.059119794284,6873.677849812472,0.9947429439989496,-1.8087487467255836e-05,0.0001741808593564675,0.10240334319822639
0.585,-1.5111681216271273e-05,0.0005814758811996813,-0.007324276545371168,-45.407442167665685,50.883333061903635,5.055591319004737,-1656333.687338053,5094375.5330773555,3595196.9117321162,-208.60208663903683,-4939.062316053307,6873.860284837112,0.9947448143448737,-1.8274247729683367e-05,0.00017567295829764684,0.10238517050357582
0.59,3.506937204900428e-05,0.000586248085496211,-0.007304689884781877,-45.404541912725996,50.87619558064462,5.054743991837687,-1656334.7296254092,5094350.837757821,3595231.2814893923,-208.3128558181033,-4939.0654975191765,6874.042625508052,0.9947466886642551,-1.846388135432904e-05,0.00017711480591740052,0.10236695600109555
0.595,-6.024138056442139e-06,0.000588984952913735,-0.007300745813433458,-45.401216744451304,50.85518917443189,5.050755985712846,-1656335.7704666872,5094326.14242238,3595265.652158321,-208.0236554100627,-4939.068679113396,6874.224945981243,0.9947485576365194,-1.8529933998692618e-05,0.00017858136442189745,0.10234879015114118
0.6,-1.2533950155754744e-06,0.0006051193103988785,-0.0073106172714736085,-45.39019175846578,50.83696644611684,5.054827864794011,-1656336.8098620968,5094301.447071076,3595300.02373864,-207.73450845567493,-4939.07184226629,6874.407181557707,0.9947504252627698,-1.8698879438373636e-05,0.00018004421460888337,0.10233063409346939
0.605,-2.924353502805451e-06,0.0005890021152123614,-0.007300760908153581,-45.393322314927566,50.82832949598521,5.04613271815956,-1656337.8478120049,5094276.751704027,3595334.396230025,-207.44545470933195,-4939.0749774413525,6874.589372532109,0.9947522950733154,-1.8860092666004135e-05,0.00018154840890427157,0.10231245344943965
0.61,-5.393786723728819e-06,0.0005976606889839068,-0.007324564717387297,-45.391718817468174,50.81675953370961,5.046150629742413,-1656338.8843166342,5094252.056321264,3595368.769632232,-207.15639701240667,-4939.078127793323,6874.771510197817,0.9947541620359776,-1.9021334413825868e-05,0.00018301209466148793,0.10229429728417075
0.615,-7.133081183668156e-06,0.0006093507255871763,-0.00730062084562121,-45.38945071719048,50.80901920746906,5.047433834673225,-1656339.9193760592,5094227.360922789,3595403.1439450346,-206.86737304830496,-4939.081261999869,6874.953610981716,0.9947560347473898,-1.9190942550296666e-05,0.00018449668058362473,0.10227608188786026
0.62,9.348219101242585e-06,0.0006076228861099807,-0.007318097487393605,-45.37409496036915,50.78804777272672,5.049160575415575,-1656340.952990443,5094202.665508672,3595437.5191682987,-206.57838048850945,-4939.084385224283,6875.135694553987,0.9947579009963876,-1.9367854098469957e-05,0.0001860098947080082,0.10225792600315359
0.625,-8.978081927430592e-06,0.0005810736058550612,-0.00730876414381591,-45.377368578272105,50.77686053021281,5.051047896208416,-1656341.9851601506,5094177.970078978,3595471.8953018337,-206.2895025067716,-4939.087492293739,6875.317719457779,0.9947597713803302,-1.9503344794803453e-05,0.00018752302432766828,0.10223972661391528
0.63,-3.387689893749213e-06,0.000586336254794584,-0.007312423601171276,-45.367712171090304,50.75653001819127,5.042788829165672,-1656343.015885502,5094153.27463383,3595506.272345408,-206.0006381290393,-4939.090566684341,6875.4997101859235,0.9947616390554941,-1.9677620798822747e-05,0.00018896544475939975,0.10222155041124621
0.635,-1.1850504406316648e-05,0.0006190523767610576,-0.007300058855373805,-45.37871572194773,50.74635575354228,5.043045391731603,-1656344.0451667195,5094128.579173278,3595540.6502987132,-205.71184881302298,-4939.0936540595785,6875.681612105173,0.9947635073292365,-1.9839340646330822e-05,0.00019042238129715207,0.10220336507059503
0.64,-3.861300227539886e-06,0.0005815297613924053,-0.007280965262807794,-45.364307298744784,50.73316353814363,5.044932646979943,-1656345.073003928,5094103.883697389,3595575.029161426,-205.4230345190899,-4939.096701639067,6875.863472862679,0.994765372093542,-2.0030460092889832e-05,0.00019195851807449828,0.1021852104480141
0.645,-3.155248949553828e-06,0.0005941265090875064,-0.00728750301398564,-45.36823020262919,50.72540158312119,5.031229125314765,-1656346.0993973059,5094079.188206265,3595609.4089333736,-205.13431664762015,-4939.099748274542,6876.045306162226,0.9947672316658457,-2.019211626981533e-05,0.0001934033811939507,0.10216710327341386
0.65,8.661031816185238e-06,0.0005812489036478297,-0.00729854474967091,-45.3618499690679,50.70138778571767,5.037179888751488,-1656347.1243470553,5094054.492699818,3595643.7896143263,-204.8455832076632,-4939.102830180805,6876.227074974468,0.9947690925699133,-2.035523714242184e-05,0.00019487975133643517,0.10214897980488281
0.655,3.088076874089423e-06,0.00060337890377758,-0.007291486790711677,-45.35846401809047,50.68720342310551,5.031563677668828,-1656348.147853351,5094029.797178108,3595678.171203956,-204.5569350287685,-4939.105853845379,6876.408776982449,0.9947709559677758,-2.0485688624861528e-05,0.00019632711279469304,0.10213082883712915
0.66,1.336097528307965e-05,0.0005952803186902971,-0.0073059430338352485,-45.35222802428157,50.67159505237222,5.028037310163044,-1656349.1699165036,5094005.10164127,3595712.553701942,-204.2683260471128,-4939.108881218854,6876.590417225146,0.9947728172193521,-2.0635646558708958e-05,0.00019782808732587618,0.10211269538941531
0.665,1.4690673644025107e-06,0.0005795000187985606,-0.007288500768371371,-45.34443362167074,50.65998264457462,5.029784323029998,-1656350.1905367544,5093980.406089301,3595746.9371079803,-203.97977428994233,-4939.111906636548,6876.771998164562,0.9947746818324396,-2.0757996214129735e-05,0.00019931154289758166,0.10209452595111711
0.67,-6.6678059552123575e-06,0.0005869329987436431,-0.007296976284382848,-45.34957874490544,50.63341233349118,5.024817579760101,-1656351.209714406,5093955.71052223,3595781.3214218556,-203.69128627017454,-4939.114921673266,6876.953552089921,0.9947765416676566,-2.090588388823207e-05,0.0002007527194539187,0.10207639986317517
0.675,-3.5706387148648967e-06,0.0005942900890030226,-0.007279505827339229,-45.332783037364926,50.629940146636585,5.023943621788305,-1656352.227449678,5093931.014940196,3595815.7066432075,-203.40282247799135,-4939.117891959167,6877.134988597315,0.9947784033288143,-2.1075908565267435e-05,0.00020221030442852517,0.10205825266666999
0.68,-6.684932431595891e-06,0.0005831934703678298,-0.007278781836742158,-45.334976526632275,50.61075238772842,5.0239407207770865,-1656353.2437428455,5093906.319343218,3595850.0927717574,-203.11444461742752,-4939.1208993412,6877.316431334444,0.9947802601964788,-2.124009904541245e-05,0.00020368697717097742,0.10204014888218996
0.685,6.475992194435273e-06,0.0006059788592712147,-0.007270455119001015,-45.325068529639715,50.59961874156813,5.018701704159172,-1656354.2585942,5093881.623731306,3595884.4798073433,-202.82609718807348,-4939.123865354998,6877.497802972536,0.9947821165533494,-2.140920349301008e-05,0.00020513525868357557,0.10202204686640096
0.6900000000000001,-2.3670830962203454e-05,0.000606190968317537,-0.007298437728921599,-45.327071712495396,50.58545984530249,5.022278613538436,-1656355.2720039757,5093856.928104508,3595918.86774968,-202.53781309227867,-4939.12685395292,6877.679131717953,0.9947839704442433,-2.1551384562050214e-05,0.00020664356357821598,0.10200396551684829
0.6950000000000001,4.098255580723978e-06,0.0005724853138128833,-0.007290935240120111,-45.318886574840384,50.56924837063693,5.024093511244149,-1656356.283972398,5093832.232462876,3595953.256598559,-202.24955575644952,-4939.129798945838,6877.86041994665,0.9947858311370444,-2.1768608110956243e-05,0.00020814470666411747,0.10198581455716534
0.7000000000000001,1.6377738045965244e-05,0.0005804080253493751,-0.007284486136850402,-45.32426812664067,50.551251731334965,5.020493597336075,-1656357.294499718,5093807.536806569,3595987.6463537663,-201.9613722909821,-4939.132723564828,6878.041662970664,0.9947876896030207,-2.190817326742028e-05,0.00020956910545209034,0.1019676822091506
0.705,-4.4992542705994865e-06,0.0005804174828340925,-0.007259046915908237,-45.31925363265028,50.522993732694424,5.024365211165883,-1656358.3035861442,5093782.841135717,3596022.037014991,-201.67319818297673,-4939.135617184013,6878.222826992099,0.9947895460892393,-2.2019215994087945e-05,0.000211016338338958,0.10194956585893052
0.71,5.002925927909264e-06,0.0006162874028529461,-0.00728286495414021,-45.304245797485564,50.520651078879006,5.015948817112467,-1656359.31123191,5093758.145450554,3596056.4285818087,-201.3851081739787,-4939.138448177035,6878.403899986984,0.9947913957596443,-2.2182168237941633e-05,0.00021245827507578193,0.10193151275249276
0.715,1.631197342936363e-05,0.000597177169689707,-0.007267202452919732,-45.30796911574797,50.49477889749122,5.005442060702466,-1656360.3174373913,5093733.449751072,3596090.8210539613,-201.09708432557372,-4939.141344852212,6878.584961129707,0.9947932511501202,-2.2330642095533733e-05,0.00021399183956959342,0.10191340037016171
0.72,8.647000174557335e-06,0.0005931498871011802,-0.007261484980359579,-45.30505278979102,50.478524171614524,5.021594130304887,-1656361.3222028087,5093708.754037151,3596125.2144310977,-200.80908265729622,-4939.144223062584,6878.765893396764,0.9947951022295477,-2.244611318413779e-05,0.00021548075939778076,0.10189532690127721
0.725,-1.7246613632797872e-06,0.0005776006084074861,-0.007250156998340702,-45.289597071160294,50.47173704780308,5.023782513702403,-1656362.3255283895,5093684.0583090605,3596159.608712871,-200.52114968796877,-4939.147013385955,6878.9468159208745,0.9947969515239515,-2.2579617976714277e-05,0.00021695771111038546,0.10187726762219963
0.73,-4.944188347447507e-06,0.0005986955650628217,-0.007264022757557251,-45.28765888198788,50.45438181798021,5.008714815842203,-1656363.32741453,5093659.362566981,3596194.003899257,-200.23330654289774,-4939.1498183020885,6879.127738589816,0.9947987976115815,-2.27349505657126e-05,0.00021839335086164065,0.10185923648848995
0.735,-1.1011862347940784e-05,0.0005850846381854234,-0.007267608147809082,-45.281075808770474,50.44510437314597,5.013841472180957,-1656364.3278615207,5093634.666810801,3596228.399990001,-199.94548962067938,-4939.152653863341,6879.308558878421,0.9948006468888018,-2.2903669462032336e-05,0.00021988063299983025,0.10184117083748943
0.74,-6.276897633268004e-06,0.0006118325334817841,-0.007286655660225133,-45.279239465222794,50.431111041570205,5.002418125478933,-1656365.3268695723,5093609.971040495,3596262.796984823,-199.65773103692814,-4939.155468516653,6879.489369967412,0.9948024967555935,-2.3084015254862174e-05,0.0002213325196149775,0.10182309623990672
0.745,-8.637421013162237e-06,0.0005904518737795131,-0.007237469271636787,-45.27033521508397,50.399741060487045,5.004016564385673,-1656366.3244388918,5093585.275256056,3596297.194883504,-199.36999681510218,-4939.158306959964,6879.670102442892,0.994804351125062,-2.3259404576577506e-05,0.0002228521325616144,0.1018049742329487
0.75,-1.4508487236087493e-05,0.0006267034843816031,-0.007281247907904682,-45.26397348951527,50.38648493503723,5.008631971861392,-1656367.320569801,5093560.579457558,3596331.5936855804,-199.0823667948862,-4939.1610925619625,6879.850728147522,0.9948061926576088,-2.343519549089418e-05,0.00022431797357860286,0.1017869745218461
0.755,-6.215437538301067e-06,0.0005925127611709271,-0.007256371456534718,-45.25512703414479,50.36559366845033,5.006011186114912,-1656368.3152627195,5093535.883645202,3596365.993390718,-198.7948006296246,-4939.163849675446,6880.03132684016,0.9948080449797568,-2.363483723527305e-05,0.00022587247627791238,0.10176886590000472
0.76,9.110084210754268e-06,0.000585371996327164,-0.007264624279154088,-45.25747961997163,50.35217677679155,5.001207800211361,-1656369.308518006,5093511.187819092,3596400.3939986588,-198.50731402280496,-4939.166594447445,6880.21184944134,0.9948098906617591,-2.3805141065327503e-05,0.00022734405729136264,0.10175081910989241
0.765,6.96138545224976e-06,0.0005738174967693693,-0.007268602683486756,-45.24536629942863,50.333671895526685,4.996694535355468,-1656370.3003358922,5093486.491979281,3596434.7955090594,-198.21984043410586,-4939.169329601927,6880.392310755503,0.9948117381181456,-2.3935518179846895e-05,0.00022880177694051344,0.10173275175277652
0.77,1.1772347683856147e-05,0.000611189911207443,-0.007257156173156758,-45.23510391245425,50.316057503723904,4.989335416871401,-1656371.290716629,5093461.796125777,3596469.1979215937,-197.93245426959356,-4939.172072034484,6880.572703072049,0.9948135862624479,-2.406830276136097e-05,0.00023023021341354855,0.10171467446938492
0.775,7.720822524148519e-06,0.0005867241335844977,-0.007264667084674391,-45.24127571430956,50.299179992811794,4.994255157909669,-1656372.2796606196,5093437.100258519,3596503.601235903,-197.64514196590355,-4939.174831213536,6880.753020487996,0.9948154311446741,-2.4198619027465143e-05,0.0002317528203266443,0.10169662561507836
0.78,1.9723784743004005e-05,0.0005743397820515594,-0.007254724441064676,-45.23233782159999,50.287427710691745,4.986959255892632,-1656373.2671680853,5093412.404377624,3596538.0054516704,-197.35784429895935,-4939.177526640401,6880.933286578158,0.9948172776203871,-2.4332795719064177e-05,0.00023321354930960314,0.10167855805093483
0.785,-1.2048642509864622e-05,0.0005975919535839279,-0.007254276594953992,-45.23425066065101,50.26736355981359,4.9941516498158185,-1656374.253239206,5093387.708483185,3596572.4105686382,-197.07060403193896,-4939.180249256132,6881.113500630592,0.9948191212468815,-2.4433966662767327e-05,0.00023464652951260765,0.10166051517462386
0.79,6.067506977747909e-06,0.0005874233717310925,-0.007260713221157704,-45.21983813357262,50.24528555923227,4.990781801162051,-1656375.2378742315,5093363.01257531,3596606.816586541,-196.7834061425449,-4939.18290061901,6881.29366031857,0.9948209644146176,-2.462006645033044e-05,0.00023612926392410416,0.1016424733956885
0.795,1.614476604726728e-05,0.0005707700904196815,-0.007233010705095659,-45.213433528375475,50.225808989208495,4.991813371332539,-1656376.2210735315,5093338.31665418,3596641.2235050458,-196.49631387585083,-4939.1855512663915,6881.473741589366,0.9948228088953841,-2.475853031662325e-05,0.0002375913114907608,0.10162441556477461
0.8,2.565556840685084e-07,0.0005870407022208865,-0.007229862177861742,-45.20358935131016,50.20502650686869,4.983541940569145,-1656377.202837547,5093313.620719869,3596675.631323801,-196.20929228926616,-4939.188173365582,6881.653760615998,0.9948246460199164,-2.4867684052178085e-05,0.00023901450327230633,0.10160642659307335
0.805,-7.056979749500367e-06,0.000577602395655717,-0.007268691252153779,-45.204055480209306,50.18941552895402,4.971904927975448,-1656378.1831666457,5093288.924772416,3596710.040042425,-195.92234719421077,-4939.190807620941,6881.833688920607,0.9948264820067332,-2.5020483853122415e-05,0.000240474125324337,0.10158844542701403
0.81,3.0275545980245757e-06,0.000572455747423707,-0.007250628456932167,-45.198866880160466,50.170956494138885,4.976956430603547,-1656379.1620610605,5093264.228811752,3596744.4496604707,-195.63541870926178,-4939.193457982473,6882.013529454549,0.9948283275313681,-2.5189099178854263e-05,0.00024190841374803924,0.10157036766188113
0.8150000000000001,9.093249133402381e-07,0.0005867845970285423,-0.00722958779049309,-45.188677061215536,50.162616898207936,4.977803534297881,-1656380.1395210042,5093239.532837948,3596778.8601776,-195.34855875500355,-4939.196063807466,6882.193322084464,0.9948301681433939,-2.5331315753902827e-05,0.00024333246387504454,0.10155233478075801
0.8200000000000001,-6.562063024197516e-06,0.0005861505498700187,-0.007231247334213754,-45.18272624138192,50.151831352412735,4.9772564641184704,-1656381.115546816,5093214.8368511,3596813.2715936555,-195.0617660500659,-4939.1986750976885,6882.373100296365,0.9948320030767308,-2.5482425538217434e-05,0.0002447916144060152,0.10153435419625652
0.8250000000000001,2.3761507362615317e-07,0.0005699888378489742,-0.007225512628730505,-45.179997177088055,50.12542763418283,4.97564077223081,-1656382.0901387918,5093190.140851205,3596847.683908523,-194.7750242144033,-4939.201283007288,6882.55284669828,0.9948338381040382,-2.5651957325405034e-05,0.00024624729131836776,0.10151636945555575
0.8300000000000001,-6.212006416351567e-06,0.0006021633913304901,-0.0072384446653903575,-45.170529878099835,50.107162830780965,4.976214758648014,-1656383.0632972165,5093165.444838375,3596882.0971218706,-194.48834564941166,-4939.20384934311,6882.732492197341,0.9948356713593645,-2.5800472503301036e-05,0.00024766449866914415,0.10149839894103983
0.835,8.818725581080403e-06,0.0005941529037662355,-0.0072403542783698914,-45.16685175907765,50.0886136471929,4.9717359285250335,-1656384.0350224522,5093140.7488127565,3596916.5112333046,-194.20174864770473,-4939.206397956449,6882.912081574605,0.9948375075484719,-2.597320062769908e-05,0.0002491600895224406,0.10148039623191725
0.84,-5.094363584512657e-07,0.000579660813383308,-0.0072424286173014005,-45.16244147289976,50.062905382368285,4.976476545935525,-1656385.005314827,5093116.052774421,3596950.9262424954,-193.91520130622746,-4939.208936218717,6883.091594736082,0.9948393438999259,-2.6106514824490283e-05,0.00025063957064746557,0.10146238873109814
0.845,-2.5323235247561367e-07,0.0005819076059448085,-0.007234714500064116,-45.15538229322272,50.048417960012245,4.973356923912244,-1656385.9741746595,5093091.356723548,3596985.342149055,-193.62873166615248,-4939.2114128738,6883.271029013305,0.9948411804578334,-2.6259354363492713e-05,0.00025208064215620913,0.1014443760445136
0.85,-3.5540796539382586e-07,0.0005897345666871234,-0.007249474615941654,-45.140273486816604,50.03609508314299,4.9709568542756815,-1656386.9416022918,5093066.66066029,3597019.758952653,-193.34232123422112,-4939.213890080301,6883.450410177769,0.9948430147300685,-2.641212163778602e-05,0.0002535273670688456,0.1014263825099889
0.855,1.838084477734115e-05,0.0005777053144156046,-0.00722985923871253,-45.13897755674815,50.00956460966956,4.971271337194314,-1656387.9075981025,5093041.964584599,3597054.1766530676,-193.0560030987227,-4939.21638646871,6883.629755741337,0.9948448524117556,-2.6567137031120793e-05,0.00025499353150801134,0.10140835223155158
0.86,1.7335196784558073e-05,0.0006047721110529694,-0.007225913434397298,-45.12541209763305,49.99039941552279,4.965308712694281,-1656388.8721624715,5093017.268496557,3597088.595249967,-192.76974449357928,-4939.218830429428,6883.809004096108,0.9948466848014361,-2.6672491083095912e-05,0.0002564345290979584,0.10139037069417631
0.865,2.0975247329572694e-06,0.0005896378029721999,-0.00720966159632432,-45.12488511461424,49.98108331293514,4.963419108353912,-1656389.8352957803,5092992.572396259,3597123.014742922,-192.48357904415218,-4939.221288729585,6883.988177813062,0.9948485158465198,-2.678730402666566e-05,0.00025794258010238485,0.10137239893601517
0.87,1.249604549011309e-05,0.0005806776724325524,-0.007251932802769973,-45.117676048352024,49.95117158500315,4.9616103297993,-1656390.7969983174,5092967.876283685,3597157.43513166,-192.1974357526196,-4939.223741116895,6884.167317393787,0.9948503424554781,-2.6936168917118653e-05,0.00025940912955235273,0.10135446757575281
0.875,1.6172779689270802e-05,0.0005866753433457491,-0.007221152671390278,-45.11103275998652,49.93373712272595,4.956465565041297,-1656391.7572703613,5092943.180158948,3597191.856415816,-191.91138183020618,-4939.226153768687,6884.346344983498,0.9948521794546592,-2.7056928409566178e-05,0.0002608560259394324,0.10133643104220202
0.88,5.133314968543579e-07,0.0005894400497301932,-0.007227755069218007,-45.10207156474583,49.92160978934107,4.957233441663047,-1656392.7161122859,5092918.484022144,3597226.278594932,-191.62538795925977,-4939.228567316902,6884.525301483328,0.9948540083245726,-2.7170042758977202e-05,0.0002623187727803712,0.10131847102666659
0.885,3.2058167199612673e-06,0.0005815527586732232,-0.007227536950865638,-45.09472168797321,49.89476530837892,4.946797366252655,-1656393.673524412,5092893.787873288,3597260.7016687533,-191.3394625165525,-4939.230975339067,6884.704226876472,0.9948558385372944,-2.7322808880860198e-05,0.0002637844288064053,0.10130049456688825
0.89,1.3289854513859902e-05,0.0006024698540241507,-0.0071923860527486685,-45.087084041644694,49.878594869244004,4.9501758145500405,-1656394.6295070944,5092869.091712387,3597295.1256368924,-191.05361045889077,-4939.233384956352,6884.883028731081,0.9948576683732177,-2.7466880797104175e-05,0.0002652311498419664,0.10128251861507294
0.895,3.638908384331342e-06,0.0005823539593814121,-0.00719337942339132,-45.081278028660485,49.858447587946415,4.952751450505115,-1656395.5840606994,5092844.395539508,3597329.5504989373,-190.76783153267075,-4939.23576678922,6885.061789248402,0.9948594889701261,-2.759114528100922e-05,0.00026673245037812346,0.10126463004735756
0.9,-1.1514090656018959e-05,0.000582276806804908,-0.00720976924519718,-45.07731194221521,49.835795226976984,4.953619128925545,-1656396.5371855875,5092819.699354813,3597363.9762546313,-190.48212365553115,-4939.238111056926,6885.240488486333,0.9948613095073852,-2.773432118511251e-05,0.0002681812762885414,0.10124673898383761
0.905,-4.149958004769854e-06,0.0005879119555131737,-0.007201238695559768,-45.07263679199468,49.81738512008261,4.94478105892254,-1656397.4888820988,5092795.003158498,3597398.4029036276,-190.1964808906821,-4939.240414995899,6885.419109942945,0.9948631338676,-2.7915176371319265e-05,0.00026962607360543107,0.10122880713345045
0.91,7.40403005825181e-06,0.0005815558789753619,-0.007202241876005193,-45.06266874323457,49.80557961082526,4.944319458853563,-1656398.4391505169,5092770.306950641,3597432.830445513,-189.91088630718096,-4939.242728070791,6885.597644298861,0.994864955740729,-2.807913613649055e-05,0.00027108675058975097,0.1012108964614646
0.915,-2.1319125085500687e-05,0.0005836129903944852,-0.00720498147848555,-45.05574749422345,49.79306452557076,4.943617383091045,-1656399.3879911387,5092745.610731212,3597467.2588799894,-189.6253624635438,-4939.245043247463,6885.776146200559,0.9948667775481902,-2.8212751667310203e-05,0.00027253454229440985,0.10119298325399738
0.92,-1.940029792406717e-05,0.0005664723304627317,-0.0072223721540202335,-45.04730217142704,49.761775285954975,4.940026988263422,-1656400.3354042866,5092720.91450022,3597501.688206879,-189.3398966717091,-4939.247353588394,6885.954609556085,0.9948685997205231,-2.841832875060926e-05,0.00027398018364199896,0.10117506321907224
0.925,-2.905518253576041e-06,0.0005783286018345905,-0.007210192045327598,-45.032181285469086,49.73370677968139,4.935310132594257,-1656401.281390343,5092696.21825776,3597536.118425781,-189.0545259083533,-4939.24963056961,6886.132951312996,0.9948704259778667,-2.86148097657508e-05,0.00027538367724716794,0.1011570998973432
0.93,-4.579712516986075e-06,0.0005931548693540451,-0.007196639411174449,-45.025905847234604,49.723765437807586,4.9396556776526666,-1656402.22594984,5092671.522003934,3597570.5495361267,-188.76927284561893,-4939.251899733115,6886.311186962585,0.9948722488221301,-2.877325532988907e-05,0.0002768208316780343,0.10113916682435423
0.935,-3.2165831264084427e-07,0.0005789884823927976,-0.007200913305407606,-45.02622307947807,49.70901634961368,4.938880319114949,-1656403.169083214,5092646.825738813,3597604.9815376145,-188.4840767633543,-4939.254148756299,6886.489408082765,0.9948740679044787,-2.8939604319898592e-05,0.00027829443928215276,0.10112126742628921
0.9400000000000001,1.6430457110164635e-05,0.000580171229162744,-0.007171649442996514,-45.01284990082851,49.68247447818846,4.937321261200316,-1656404.1107906813,5092622.129462508,3597639.414430073,-188.19891019384443,-4939.256373246504,6886.667575334325,0.9948758877530797,-2.9091784397192873e-05,0.00027973388850836275,0.10110335736335108
0.9450000000000001,4.311009933208317e-06,0.0005898740248189975,-0.007192326252833884,-45.00480512623529,49.66460551882619,4.93353046766493,-1656405.0510725938,5092597.433175131,3597673.848213136,-187.91385476907618,-4939.258577324441,6886.845650033661,0.9948776998821814,-2.9202577259720533e-05,0.0002811805157254284,0.10108552004054401
0.9500000000000001,6.945972174346249e-06,0.0005935540638551947,-0.007172341061412793,-44.993162941064874,49.644813204247924,4.9207032885506825,-1656405.9899294009,5092572.736876741,3597708.282886403,-187.62886807800382,-4939.260778700951,6887.023656693846,0.9948795169060336,-2.9345980097248976e-05,0.00028264821132771415,0.10106763126550102
0.9550000000000001,-6.668066488521537e-07,0.0005855483986396639,-0.007178570337889153,-44.98875394267752,49.62045826450623,4.927187145306356,-1656406.9273614662,5092548.040567255,3597742.718449458,-187.34395812888098,-4939.263015975705,6887.201565246906,0.9948813285548999,-2.948374496047636e-05,0.0002841257270665909,0.1010497921626634
0.96,-2.879017824158248e-05,0.0005703478902653129,-0.007182463057316825,-44.97827098288389,49.60482610194038,4.91750270248387,-1656407.8633691755,5092523.344246745,3597777.154901884,-187.05912548312284,-4939.265187711714,6887.379405127964,0.9948831414602501,-2.963842634064905e-05,0.000285581407362857,0.10103193753960937
0.965,7.733416669911534e-06,0.0005879800493806767,-0.0072195035518836485,-44.97262047103499,49.58240086818409,4.920617316568454,-1656408.7979528913,5092498.647915301,3597811.5922433254,-186.77436089338158,-4939.267390113067,6887.557171588548,0.9948849550349115,-2.9859219819095777e-05,0.00028699217705745075,0.1010140732229894
0.97,-8.35630191175885e-06,0.0005681337836540658,-0.007185822915761686,-44.958500751128675,49.57102400865776,4.911500871315956,-1656409.731112972,5092473.951572957,3597846.0304734265,-186.4896713446097,-4939.26954728563,6887.734868791657,0.9948867776291548,-2.9993650666459584e-05,0.00028845602231072524,0.1009961167183216
0.975,3.991012230802907e-06,0.0005680566507582847,-0.00715564033337877,-44.95322255614063,49.542343709642445,4.922404454104281,-1656410.6628497983,5092449.255219714,3597880.469591885,-186.20505924416304,-4939.271750127739,6887.912514509486,0.9948885914078076,-3.016306484683837e-05,0.0002898664455292525,0.1009782439648355
0.98,1.340436834045921e-05,0.0005834344352649111,-0.007167769445818666,-44.95192930254054,49.525739436758336,4.911587585858158,-1656411.593163801,5092424.558855684,3597914.9095983887,-185.92054178217472,-4939.273861904744,6888.090087049093,0.99489039724625,-3.0301727168371094e-05,0.0002912797961086929,0.10096044624051936
0.985,-9.264227254269647e-06,0.0005820634803326786,-0.007171767323614868,-44.93681174601909,49.48909720747732,4.913437311579299,-1656412.522055284,5092399.8624810595,3597949.3504925347,-185.63605142878913,-4939.275987710077,6888.267571365208,0.9948922058146217,-3.0420866538507274e-05,0.00029273376964224603,0.10094261830776635
0.99,-1.0072571101904741e-05,0.0005919031416973059,-0.007177806501636704,-44.926803099707634,49.4768597477903,4.907095612475568,-1656413.449524669,5092375.16609594,3597983.7922737957,-185.3517025434333,-4939.278059971458,6888.444933025644,0.9948940150694072,-3.0596044877818655e-05,0.0002941786123276569,0.1009247804154179
0.995,1.1323578675626463e-05,0.0005560323837610261,-0.0071680958891796225,-44.915937486847305,49.45512827005175,4.912105942105294,-1656414.3755724696,5092350.469700399,3598018.234941738,-185.0674177256021,-4939.280156521163,6888.622243963534,0.9948958255184158,-3.077572085401494e-05,0.00029564772405153857,0.10090692746936779
1.0,-1.673738704398354e-05,0.000602980116797757,-0.007153688861258988,-44.9084122386584,49.43714387347638,4.906760871968775,-1656415.3001990952,5092325.773294476,3598052.6784960935,-184.7832324954474,-4939.282212585654,6888.799498091817,0.9948976332239331,-3.089312327278833e-05,0.0002970330148078839,0.10088909863022595
1.0050000000000001,9.718780217884228e-06,0.0005750270891855785,-0.00716170773185015,-44.90691111969379,49.41711075577689,4.902378724210557,-1656416.2234049558,5092301.076878268,3598087.1229365356,-184.49911181443287,-4939.284270721468,6888.976678867742,0.9948994369376926,-3.1092150740304306e-05,0.00029852799943846123,0.10087130560954456
1.01,1.1895589732175576e-05,0.0005865129852807494,-0.007169042873566672,-44.88443059748949,49.395309633395804,4.899020577280605,-1656417.1451903193,5092276.380451816,3598121.568262672,-184.21503358768834,-4939.28631005545,6889.153775656758,0.9949012423758247,-3.1218331971686026e-05,0.0002999601288912469,0.10085349259384824
1.0150000000000001,-1.4439645167484417e-05,0.0006019313116714898,-0.007134208697862925,-44.880556943135076,49.3664199364997,4.897932420375191,-1656418.0655556442,5092251.684015127,3598156.0144741153,-183.93109639115673,-4939.288365496119,6889.330801563762,0.9949030493335966,-3.1342000399227884e-05,0.00030142137485250875,0.10083566129869335
1.02,3.239378206327538e-06,0.0005837960288240604,-0.0071215245127826034,-44.8678326136181,49.34435076040597,4.9083371668133875,-1656418.9845014664,5092226.98756828,3598190.4615704156,-183.6472324670308,-4939.29037368156,6889.507718715398,0.9949048471761381,-3.153503187387775e-05,0.0003029143339689707,0.10081791663128836
1.025,-2.590743639522588e-05,0.0005830481130566137,-0.0071398247315086726,-44.85920598056339,49.325228719662896,4.889946769569367,-1656419.9020282575,5092202.291111537,3598224.909551198,-183.36348394333783,-4939.292323084957,6889.68459424609,0.9949066415187144,-3.167951046418419e-05,0.00030436664269230945,0.10080020346858268
1.03,-1.9267454995259385e-06,0.0005568396812455607,-0.0071377033529929,-44.85833951077424,49.30501080170417,4.888100230317818,-1656420.8181364427,5092177.594644916,3598259.3584160744,-183.07979015991634,-4939.294325534735,6889.86135617826,0.9949084401529247,-3.1896310392705984e-05,0.0003058097445909034,0.10078244477834357
1.035,-4.0092892052048277e-07,0.000571992659182428,-0.007141376644747902,-44.85869868367673,49.286090158600075,4.889420233531407,-1656421.732826267,5092152.898168358,3598293.8081645644,-182.79613952198642,-4939.296297456998,6890.038039887376,0.9949102379556763,-3.20468588351503e-05,0.0003071937011672449,0.10076469131599866
1.04,-1.4466329194281711e-05,0.0005784243322414882,-0.007168942336120196,-44.8374201994657,49.26547148216946,4.892707927743693,-1656422.6460979364,5092128.201682048,3598328.2587963105,-182.51252825352768,-4939.298226830166,6890.214658473447,0.9949120363533169,-3.219743217487306e-05,0.0003086157313541163,0.1007469286824765
1.045,2.6830046958659694e-05,0.000549767491212567,-0.007142224912074046,-44.82185456229727,49.244983180776316,4.887031894503805,-1656423.5579519046,5092103.505186114,3598362.7103110277,-182.22905897945702,-4939.300146329333,6890.391228499825,0.9949138413673518,-3.2384631290576204e-05,0.00031005021398039203,0.10072909746324814
1.05,1.9501838771053706e-07,0.0005619218415887242,-0.007134900549966031,-44.82539572524176,49.22464781050728,4.890707013616348,-1656424.4683887877,5092078.808680549,3598397.1627084007,-181.94569435038187,-4939.302079904666,6890.567720711172,0.9949156393585166,-3.246187740158596e-05,0.00031142382031718946,0.10071133263573179
1.055,-1.019402052574968e-05,0.0005663252556251384,-0.00712922885330556,-44.799860606341184,49.197532874392394,4.882756888878521,-1656425.3774089247,5092054.11216547,3598431.615988068,-181.6623603843007,-4939.30395185148,6890.744146010397,0.9949174351751425,-3.26084270179986e-05,0.0003128209524087364,0.10069358601350133
1.06,-1.1776500340653158e-05,0.0005737351962058415,-0.007144619370086731,-44.802533496732224,49.16928962045643,4.885717072369435,-1656426.2850127874,5092029.41564096,3598466.0701496038,-181.37918474432277,-4939.30585200699,6890.920468436609,0.994919229241441,-3.2781921267162766e-05,0.0003142264221721124,0.1006758534739991
1.065,-1.5231068628230788e-05,0.0005872638336242002,-0.007136768934775589,-44.793139527379175,49.15190487277257,4.87382197437744,-1656427.1912008917,5092004.719107138,3598500.525192501,-181.09605694258607,-4939.307676979937,6891.096690524832,0.9949210268566702,-3.296122870031615e-05,0.0003156499230106519,0.1006580826220755
1.07,1.290196561912117e-06,0.0005841357484880316,-0.0071490304532894474,-44.78329789771654,49.129165577910854,4.871832033098608,-1656428.0959735152,5091980.022564108,3598534.9811162897,-180.81299249906243,-4939.309534974658,6891.272824847772,0.9949228221662516,-3.315252690124933e-05,0.0003171062048838621,0.10064033126588076
1.075,9.70138906636177e-06,0.0005853553601604028,-0.007125497864703648,-44.76938824317548,49.10167597355657,4.8676743611702635,-1656428.999331036,5091955.326011832,3598569.437920546,-180.53001576366267,-4939.311375559167,6891.448877723863,0.9949246202452939,-3.3301954323767294e-05,0.00031855886189479716,0.1006225493663781
1.08,-5.488083667513529e-08,0.0005801708449601748,-0.007113279432301242,-44.75965526563212,49.08649539457329,4.864133053275068,-1656429.9012739523,5091930.629450381,3598603.8956048083,-180.24715075077108,-4939.313204697881,6891.6248271846525,0.9949264120854027,-3.3430748539147614e-05,0.00032001667020611414,0.1006048259607034
1.085,6.435381133247454e-06,0.0005877455089459744,-0.007130501984367286,-44.74360837445346,49.060514965966625,4.867014572675108,-1656430.8018027225,5091905.93287977,3598638.35416868,-179.9643573611203,-4939.315039626929,6891.800721459162,0.99492820053847,-3.358249592702023e-05,0.00032145913008919784,0.10058713292228647
1.09,1.716368647872183e-05,0.0005871339422833079,-0.007125768605045873,-44.73689439792418,49.03868906292744,4.865201391662672,-1656431.700917845,5091881.236300063,3598672.813611833,-179.68169156425432,-4939.316843169853,6891.976539847745,0.994929992999391,-3.372001856770445e-05,0.00032292206113288175,0.10056939700790947
1.095,9.927930454065112e-06,0.0005830042165857533,-0.007129879192376246,-44.73012882099637,49.008060797591554,4.866504787824795,-1656432.5986198187,5091856.539711394,3598707.2739338786,-179.399098012451,-4939.318624247499,6892.152278390731,0.9949317839535262,-3.3830698832199106e-05,0.0003243861686553042,0.10055167282622135
1.1,5.67339683661803e-06,0.0005923111197690421,-0.007152627127572674,-44.72455835924533,48.9988378142009,4.859761769015989,-1656433.4949090558,5091831.843113958,3598741.73513435,-179.1165967593876,-4939.320350451744,6892.327910093863,0.9949335756256572,-3.395834200148004e-05,0.00032583818481954834,0.10053393839422141
1.105,-1.8247956446129433e-05,0.0005791190318892149,-0.007094268328663456,-44.70603362858436,48.97667832650104,4.856974932846571,-1656434.3897858816,5091807.146507831,3598776.197212871,-178.83413362088424,-4939.32210020734,6892.503498395132,0.9949353726879262,-3.409892528516835e-05,0.00032731227901162957,0.10051614735092507
1.11,1.8497175046192513e-05,0.0005728344193440481,-0.007123774206008814,-44.695356367062665,48.93834073188594,4.855733224510697,-1656435.2832507032,5091782.449892944,3598810.6601691484,-178.55179505451702,-4939.323854768282,6892.679012560266,0.994937154776266,-3.4295646260821045e-05,0.00032874755368127867,0.10049850145431648
1.115,-1.532540563668734e-05,0.000578733092659293,-0.007113495883888775,-44.691645768116004,48.921094241330906,4.848206776809973,-1656436.1753041332,5091757.75326942,3598845.1240026415,-178.26957686478815,-4939.325554790116,6892.854384618472,0.9949389439698316,-3.439941474873235e-05,0.0003301764258069125,0.1004807821048603
1.12,-6.053898368789998e-07,0.0005742769866675881,-0.007115641797441719,-44.675677043416975,48.901931248316764,4.842579141581546,-1656437.06594658,5091733.056637385,3598879.588712795,-177.987401845113,-4939.327259198011,6893.0296769388115,0.9949407302565058,-3.4588785006561255e-05,0.0003316114744623076,0.10046308831654031
1.125,6.403032978782363e-06,0.0005473395719180025,-0.007098688358986618,-44.66224716568341,48.88150556296887,4.851664530857566,-1656437.9551784117,5091708.359996784,3598914.0542992307,-177.70533084241245,-4939.328981229476,6893.204897152654,0.9949425167702861,-3.4740423988804456e-05,0.0003330391359687896,0.10044538914676938
1.1300000000000001,-7.79434323570885e-06,0.0005620289170750532,-0.00710879945259614,-44.66298050912054,48.868108405316654,4.845987950420018,-1656438.8430001729,5091683.663347693,3598948.5207616715,-177.42337362864873,-4939.330654787621,6893.380079180065,0.9949442987338067,-3.486785205226376e-05,0.00033440155580323125,0.10042773211083655
1.135,-7.140113254380612e-06,0.0005802668512974652,-0.007092076676934708,-44.655400907689135,48.83563014163223,4.843930179969328,-1656439.7294121946,5091658.966690244,3598982.9880998656,-177.14143506274476,-4939.332325178309,6893.555198542237,0.9949460829066806,-3.5034290597925576e-05,0.000335796947824981,0.10041004990368733
1.1400000000000001,-1.4535568794433673e-05,0.000577894691230925,-0.007095738744066264,-44.631713490339635,48.81312343231026,4.8336811940800395,-1656440.6144147606,5091634.270024552,3599017.456313349,-176.85959136898992,-4939.3339513493775,6893.730194740444,0.9949478625509257,-3.520366596465412e-05,0.00033723786983611004,0.10039240925819767
1.145,5.4724270789523264e-06,0.0005689691756151641,-0.007067632324698301,-44.619861161315335,48.78757608508369,4.845237228477853,-1656441.498008455,5091609.57335062,3599051.9254015824,-176.57788636136368,-4939.335621432479,6893.90509866566,0.99494964280061,-3.539084427224662e-05,0.00033867103486020047,0.10037475947845101
1.1500000000000001,-3.196541416759729e-06,0.0005586333867244555,-0.007086963464499214,-44.61716853416865,48.756744629437975,4.827228331193178,-1656442.380193922,5091584.876668521,3599086.395364202,-176.29630040168544,-4939.337218282946,6894.079949159607,0.9949514156927809,-3.5525991659525034e-05,0.00034008702191221725,0.10035717956206563
1.155,1.5920335944548662e-05,0.000569660305883004,-0.0070901266226016104,-44.603317901832334,48.729460588935154,4.834174937069584,-1656443.2609715827,5091560.179978407,3599120.8662006613,-176.01476390710718,-4939.338827472823,6894.254634485076,0.9949531931295681,-3.5680125300924825e-05,0.0003414751231376571,0.10033955153849014
1.16,-1.27470521198101e-05,0.0005754693741782379,-0.007074538443755807,-44.5921872238319,48.706204208711476,4.835783551865398,-1656444.140341874,5091535.483280384,3599155.3379103676,-175.73335260231863,-4939.340381682944,6894.4292480600925,0.9949549710376798,-3.578947672627966e-05,0.0003428954475913423,0.10032191559791456
1.165,4.808760168824866e-08,0.0005585771259794039,-0.0071023772805363485,-44.57192934203548,48.6850021617163,4.824496504450074,-1656445.018305356,5091510.786574665,3599189.8104929603,-175.45204020449503,-4939.3419056014955,6894.603789086253,0.9949567447147017,-3.597157862034624e-05,0.0003443230328167895,0.10030431842357779
1.17,1.3693461690528278e-06,0.0005657096978267422,-0.007085195731670479,-44.574384650741216,48.65843223061113,4.835019133985738,-1656445.894862575,5091486.089861218,3599224.2839480266,-175.17084738868525,-4939.343473459425,6894.778237343166,0.9949585250738475,-3.6117642026912415e-05,0.0003457118063086215,0.1002866519619487
1.175,1.2781521889683911e-05,0.0005782136748035468,-0.007079810066240629,-44.55513615680926,48.6467407761531,4.825417184497102,-1656446.7700139682,5091461.393140183,3599258.758275153,-174.88970991245844,-4939.34494049573,6894.952613294402,0.9949603008043566,-3.626219233306859e-05,0.0003471186540368413,0.10026902820411547
1.18,-3.793082865278365e-06,0.0005937490039062958,-0.007072922789648897,-44.5480584616012,48.61978216392232,4.806834206787621,-1656447.6437599245,5091436.69641167,3599293.233474034,-174.60867257595166,-4939.3464646072325,6895.126938988151,0.9949620748610442,-3.6381485703704716e-05,0.0003485594652649219,0.10025141779991295
1.185,-6.384056821409267e-06,0.0005744364075360507,-0.007064900220223106,-44.534887860105584,48.58859994178519,4.820325463237363,-1656448.5161008474,5091411.9996754555,3599327.7095441744,-174.3276966561409,-4939.348021162766,6895.301117256768,0.9949638468630105,-3.654589441607158e-05,0.00035003476559871674,0.1002338245085972
1.19,9.714743395037569e-07,0.0005870410753635218,-0.007071392199534118,-44.52289203351432,48.57508043294177,4.812110253250629,-1656449.3870372346,5091387.302931687,3599362.1864850316,-174.04685824446372,-4939.349486523597,6895.475225656074,0.9949656165584494,-3.6711901471550986e-05,0.00035146137895941275,0.10021625114521193
1.195,3.5133263467305477e-06,0.0005625890937626873,-0.007076184932590611,-44.508944444770755,48.54878175940482,4.824581323697544,-1656450.2565696116,5091362.60618051,3599396.6642962815,-173.7660924713415,-4939.350984412906,6895.649274229612,0.9949673875572251,-3.686277594959244e-05,0.00035292118750092876,0.10019866159446324
1.2,9.972336483238418e-06,0.0005765473451225474,-0.007038606799807088,-44.50403975866627,48.52044024899798,4.810602620650384,-1656451.1246984866,5091337.909422029,3599431.1429776433,-173.48545760256314,-4939.352407927229,6895.823270543665,0.9949691594651505,-3.700120685546803e-05,0.0003543208099044504,0.10018106009064941
1.205,5.851856058274936e-06,0.0005628676727141883,-0.007041593380676308,-44.49509077272069,48.48506875646301,4.809148346302818,-1656451.9914243375,5091313.212656413,3599465.6225286317,-173.204882755457,-4939.353838113293,6895.997124862272,0.9949709216380193,-3.7127034054297805e-05,0.00035575677342330873,0.10016355202114191
1.21,7.904955408254668e-07,0.0005738378127460063,-0.0070269434166515725,-44.47802161983678,48.47544473767575,4.805287707092217,-1656452.8567475814,5091288.515883774,3599500.1029485613,-172.92441474754852,-4939.355217678237,6896.17084695619,0.9949726842603086,-3.7259687781857255e-05,0.00035715767755848933,0.10014603649643523
1.215,-1.0589364946719849e-06,0.0005624281166967225,-0.007046255299635001,-44.46681587685424,48.439800322166654,4.804704122371531,-1656453.72066872,5091263.81910415,3599534.584237032,-172.64404070816045,-4939.356631902631,6896.344541361679,0.9949744428947812,-3.740766474571042e-05,0.0003585846032333249,0.10012855738483802
1.22,-2.0098039873381282e-05,0.0005778196649764502,-0.007050642768030699,-44.453470902460595,48.426181648392955,4.792423341878788,-1656454.583188285,5091239.1223175805,3599569.0663936525,-172.363785214075,-4939.357996054923,6896.5181066978,0.9949762060635731,-3.755740326329116e-05,0.0003599826831481075,0.10011103020770287
1.225,-4.001599263474154e-06,0.0005703080019087289,-0.007048221136860091,-44.4441386688441,48.397227143045946,4.79408299464557,-1656455.4443067561,5091214.425524062,3599603.5494179227,-172.08360332661593,-4939.359411249775,6896.69160149256,0.9949779700038434,-3.775835651414948e-05,0.0003614142830385763,0.1000934921014018
1.23,8.078602557727685e-06,0.0005785854544627117,-0.0070195084719385115,-44.42755696493099,48.37069390847403,4.797892970091741,-1656456.3040245706,5091189.728723586,3599638.0333094243,-171.80352245282137,-4939.36077910158,6896.864999129045,0.9949797330353651,-3.791738888420251e-05,0.00036283122606884234,0.10007595997364593
1.235,-1.0808269730533236e-05,0.0005631111657200511,-0.007063949616356936,-44.41516309593452,48.34542252454579,4.795412633944148,-1656457.1623423107,5091165.031916359,3599672.518067726,-171.52357353315546,-4939.3621115194155,6897.03832142317,0.9949814885671829,-3.804841724289302e-05,0.0003642717837962529,0.1000584992242948
1.24,7.18298014516152e-06,0.0005586567897620568,-0.007055674908566295,-44.413892852854225,48.31354564192983,4.803384628753283,-1656458.019260563,5091140.335102512,3599707.0036924104,-171.24372741696618,-4939.363427567824,6897.211552435483,0.9949832549176947,-3.82225954468387e-05,0.00036566912112538126,0.10004092791711187
1.245,-1.583396086479567e-05,0.0005785254723806732,-0.007044702921021011,-44.391362938671314,48.29881104249952,4.7807921192163905,-1656458.8747797802,5091115.638282322,3599741.490183005,-170.96395947174167,-4939.364648182149,6897.384685430009,0.994985018892574,-3.8350899543632884e-05,0.00036705987871019097,0.10002337714553661
1.25,-7.672710069605935e-06,0.0005911089771533466,-0.007030981988031304,-44.374404457700635,48.268678270971215,4.7800034254630255,-1656459.7289004165,5091090.94145576,3599775.977539024,-170.68429509152884,-4939.365976687771,6897.557722059475,0.9949867797922642,-3.854141567054276e-05,0.00036849430425563856,0.10000585365431071
1.2550000000000001,4.884440611103916e-06,0.000589754460346293,-0.007026419641957155,-44.359343953613504,48.23749314182355,4.775412695577087,-1656460.5816230664,5091066.244622618,3599810.4657599693,-170.40476487731698,-4939.367280357913,6897.730656143538,0.9949885369405679,-3.871476436395314e-05,0.0003699620724926443,0.09998836425354846
1.26,1.8849414587536026e-05,0.0005356689530236314,-0.0070153679065311,-44.357629349911306,48.212160889170285,4.769391618516162,-1656461.4329483719,5091041.547782997,3599844.954845288,-170.12535730745256,-4939.368567833914,6897.903471203597,0.9949902926414985,-3.885653468332418e-05,0.0003714296106568379,0.0999708861589173
1.2650000000000001,-1.4609095991029499e-05,0.00056644582499779,-0.00703890271494412,-44.34569795654079,48.18457911662326,4.784374094551249,-1656462.2828767656,5091016.8509370005,3599879.4447944057,-169.84600015690796,-4939.369830875438,6898.076176032872,0.9949920453233663,-3.8950039754197375e-05,0.00037276610361961415,0.0999534355164987
1.27,1.71710872356017e-05,0.0005832115777937662,-0.007048024196387666,-44.32381951759275,48.17210794973221,4.784253537508049,-1656463.1314086916,5090992.154084917,3599913.9356069174,-169.56677024876413,-4939.37100246139,6898.248828592855,0.9949938035452809,-3.913448476026005e-05,0.00037417079029921746,0.09993592632885714
1.2750000000000001,-1.6781102768983994e-05,0.0005491150979571887,-0.007024904203881635,-44.323558185405275,48.14107041799316,4.771478999683212,-1656463.9785447817,5090967.457226918,3599948.4272826295,-169.28766574859696,-4939.372197222779,6898.42145623144,0.9949955637229614,-3.9244074325742805e-05,0.00037562512047510107,0.09991839438911024
1.28,-4.916135947134633e-06,0.0005617056588326961,-0.007009001152971712,-44.30966775034505,48.1152140711669,4.7659844940241065,-1656464.8242854627,5090942.760362979,3599982.919821096,-169.00860669551562,-4939.37337807641,6898.593930396329,0.9949973178441501,-3.94295807001927e-05,0.00037698615706608274,0.09990091996419646
1.285,-6.770809993673679e-06,0.000534194723882919,-0.0070018172765999144,-44.292791068169954,48.08698832089976,4.770587569874733,-1656465.6686311152,5090918.063493144,3600017.413221681,-168.7296542656793,-4939.374556162213,6898.766303628701,0.9949990676747033,-3.958870257046412e-05,0.000378381477346458,0.09988348505465595
1.29,1.091174400425241e-05,0.0005630200328045194,-0.00700577592180007,-44.27785097508221,48.06481086144387,4.757572260392662,-1656466.5115823485,5090893.366617523,3600051.9074839326,-168.45083906703647,-4939.3756923063675,6898.9385969874975,0.9950008154301621,-3.9745561410162655e-05,0.00037970790170622825,0.09986606798864427
1.295,-6.689346053489392e-06,0.0005816940512233036,-0.007016567201943386,-44.26562332378322,48.03396446102101,4.761229531285903,-1656467.3531397434,5090868.669736127,3600086.4026073855,-168.17211892031258,-4939.376865892788,6899.110784147598,0.9950025638414275,-3.986563528194211e-05,0.00038111044328807946,0.09984864102503958
1.3,4.867706915417716e-06,0.0005404159946154118,-0.00699027550489898,-44.244805292197114,48.009157577115786,4.752740137245454,-1656468.1933038372,5090843.972848998,3600120.8985915314,-167.89351861301853,-4939.377985696829,6899.282874316499,0.9950043146191518,-4.003416368580297e-05,0.0003825550418047594,0.09983118720208436
1.305,1.555174026921988e-05,0.0005567007800975225,-0.006985048802448921,-44.23533835032345,47.984363086344494,4.745288824065297,-1656469.0320752594,5090819.275956206,3600155.39543588,-167.6150502775927,-4939.379131050486,6899.454865124294,0.995006058568703,-4.0163616544845656e-05,0.0003838998476095707,0.09981379874228737
1.31,-1.0182053719050796e-05,0.0005614738360025096,-0.006996943992230331,-44.22501724998514,47.95526080993362,4.749950746864574,-1656469.869454546,5090794.579057692,3600189.8931399183,-167.33666424713357,-4939.3802746621195,6899.626750146452,0.9950078008939349,-4.0270551296192e-05,0.00038528782850674026,0.09979642324145459
1.315,-3.5988749777979246e-07,0.0005471909894225545,-0.007008066649937997,-44.20983604370665,47.93241334426185,4.748000765821418,-1656470.7054421755,5090769.882153604,3600224.39170316,-167.05838762944813,-4939.381360604819,6899.798546465776,0.995009545873839,-4.044270164201722e-05,0.00038668126080605795,0.0997790181447328
1.32,-2.072998896949552e-05,0.0005451981764085025,-0.0069875991091761765,-44.204494881042386,47.900097588793656,4.7472135279426775,-1656471.540038701,5090745.185244104,3600258.8911251887,-166.78022253543512,-4939.3824392853585,6899.970264988374,0.9950112933362117,-4.0586867033778474e-05,0.00038804161305508374,0.09976158534131262
1.325,-1.6848639160241988e-05,0.0005582763678571588,-0.006965869455507572,-44.193293183265645,47.874152501291725,4.747247528081581,-1656472.3732446153,5090720.488329345,3600293.391405507,-166.50214325219792,-4939.383464231368,6900.141862425839,0.9950130353873742,-4.078118674446114e-05,0.0003893919296987279,0.09974420344072202
1.33,2.170312652050453e-05,0.0005692997854919551,-0.006983849635112516,-44.174894782860925,47.846704609031484,4.734141203751449,-1656473.2050603877,5090695.791409538,3600327.8925435925,-166.22416569859377,-4939.3844588385455,6900.3133717271285,0.9950147717030865,-4.096909148961138e-05,0.000390775748721361,0.09972687555770719
1.335,7.450081180169775e-07,0.0005624554281512839,-0.006971069770399849,-44.158894732246786,47.81960981204812,4.7468902692141,-1656474.035486572,5090671.094484676,3600362.3945389115,-165.94630797295875,-4939.385486109973,6900.484755924525,0.995016512190228,-4.106386317445141e-05,0.00039219659855911756,0.09970950287901902
1.34,1.499760550733463e-05,0.0005562173745054074,-0.007000138262574793,-44.14754731749858,47.79646758337649,4.726018139693418,-1656474.8645238217,5090646.39755486,3600396.8973910185,-165.66859191261395,-4939.386440028554,6900.656086834492,0.9950182491914862,-4.120905038218136e-05,0.00039359519965838754,0.09969216198148437
1.345,1.1635735078061869e-05,0.0005556493796288505,-0.006970586944451972,-44.13576160944971,47.76238777421049,4.728864644810372,-1656475.6921726672,5090621.700620128,3600431.401099442,-165.39094634857938,-4939.387452667681,6900.827282636748,0.995019993139683,-4.1317257481425616e-05,0.00039498183237970735,0.0996747487307671
1.35,1.5899828204506835e-05,0.0005843077638742298,-0.0069805962324477186,-44.11546531776687,47.738300484714046,4.7350971830380875,-1656476.5184335914,5090597.003680481,3600465.9056635625,-165.11342330977624,-4939.3884063165,6900.998365616547,0.9950217294189166,-4.14336566712635e-05,0.00039636621738263386,0.09965740896321842
1.355,-1.168571074042125e-06,0.000573901164222535,-0.006976988111219915,-44.104454441595536,47.71707360622497,4.725116269010608,-1656477.3433072683,5090572.306736145,3600500.411082959,-164.83604742882045,-4939.389327984673,6901.169392778598,0.9950234678593162,-4.154659865428156e-05,0.0003978229528862217,0.09964004425931797
1.36,2.7654488895144955e-06,0.000562900062692121,-0.006978834035809522,-44.09196937953147,47.69165627428403,4.723254752683747,-1656478.1667942647,5090547.609787152,3600534.917357248,-164.55875109682506,-4939.390269131764,6901.340322813924,0.9950252051045405,-4.1699403395555595e-05,0.0003992495498753097,0.09962268851834805
1.365,1.3270380666600072e-06,0.0005528764630495342,-0.0069678081662817885,-44.084480480379995,47.66473263832961,4.72177997966411,-1656478.9888950395,5090522.912833502,3600569.424485961,-164.2815588419552,-4939.391191155434,6901.511162587244,0.9950269425160797,-4.183968394569052e-05,0.00040064976041050474,0.09960532815222625
1.37,-3.312072647093516e-05,0.0005534994288840324,-0.006961343293514524,-44.064287033230826,47.629686052475584,4.718640748601022,-1656479.809610065,5090498.215875327,3600603.9324686253,-164.00445142266884,-4939.392078852959,6901.681902958105,0.9950286768875752,-4.198103557322403e-05,0.0004020246794137356,0.0995879951857209
1.375,1.2608192537661284e-05,0.000567418566632008,-0.0069594987543048804,-44.04799179086912,47.605025093970596,4.715707089262573,-1656480.6289399392,5090473.518912764,3600638.441304674,-163.72749824292208,-4939.392946068993,6901.852516653503,0.9950304093417124,-4.220822707405357e-05,0.0004033925721854778,0.09957067830522505
1.3800000000000001,2.1032449751728238e-06,0.0005574304386883859,-0.006949413462133431,-44.03098364451463,47.579403947144854,4.7133259370507865,-1656481.4468853434,5090448.82194588,3600672.9509935738,-163.45066346295093,-4939.393807932279,6902.023043217413,0.9950321410242331,-4.232512738431695e-05,0.0004048064730909536,0.09955336593522966
1.385,1.686043436772967e-06,0.0005513622546588876,-0.0069514324783868766,-44.02658475751637,47.548891737765125,4.710038631751582,-1656482.263446884,5090424.124974705,3600707.461534884,-163.1739527249007,-4939.394661449944,6902.193480903992,0.9950338699029442,-4.2465663497018165e-05,0.0004061929141623629,0.09953607863460726
1.3900000000000001,-1.3502923100508769e-05,0.0005685670773467813,-0.006958369733636341,-44.00474364210573,47.522831580965295,4.701025535558681,-1656483.0786250583,5090399.427999369,3600741.972928079,-162.8973169926768,-4939.3954731654585,6902.363796951813,0.9950355989878461,-4.2605729463173686e-05,0.00040756415595789223,0.09951878628233495
1.395,2.2901707681978708e-05,0.000554153618527968,-0.006942606765083786,-43.99202591776505,47.48915350601159,4.702104851914318,-1656483.8924203988,5090374.731019908,3600776.4851725902,-162.62081923457183,-4939.396311544169,6902.534007710941,0.9950373294768011,-4.278786689848536e-05,0.00040897441644932857,0.09950147665638517
1.4000000000000001,-6.080463829378277e-07,0.0005546491135195526,-0.006948791152743285,-43.980571970218904,47.46486728233426,4.69643880254212,-1656484.7048335597,5090350.0340363765,3600810.998267867,-162.34444508613046,-4939.397100640709,6902.704102987999,0.9950390557608932,-4.2875842886569676e-05,0.00041035787946501007,0.09948420617637203
1.405,4.135440908163761e-06,0.0005521972028021564,-0.006942609141552121,-43.966025287579406,47.434281845626536,4.701087068732285,-1656485.515865081,5090325.337048911,3600845.5122133773,-162.0681634006668,-4939.39788601306,6902.874101033069,0.9950407832781448,-4.3022431249711596e-05,0.0004117367271623924,0.09946692030596875
1.41,-1.346076987459572e-05,0.000549818938413481,-0.006925046274623528,-43.958220162406356,47.410162785505506,4.6880116891416685,-1656486.3255155208,5090300.6400576485,3600880.027008649,-161.79201256643566,-4939.398618869995,6903.044007616254,0.9950425089592397,-4.3156603618115864e-05,0.00041311065557202956,0.09944964977914825
1.415,-1.5069341644799618e-05,0.0005742708910855876,-0.006927556941978508,-43.93390265306782,47.37660205463789,4.687534960349083,-1656487.1337853721,5090275.943062675,3600914.5426531527,-161.51592797768842,-4939.399370135499,6903.213793917753,0.995044229973453,-4.333393898535456e-05,0.0004144742947237236,0.099432422930183
1.42,-3.4372159658143427e-06,0.0005542011476459146,-0.006919643742224613,-43.91641618346241,47.3523485852864,4.683189176312406,-1656487.9406752342,5090251.246063995,3600949.059146313,-161.2400168024969,-4939.400102188487,6903.383470279445,0.9950459512859434,-4.352135673342829e-05,0.0004158983605539017,0.099415189804663
1.425,3.168991381204232e-06,0.0005311756041338336,-0.006912179803676291,-43.90602714858176,47.32587819472423,4.681911082127218,-1656488.7461858431,5090226.549061645,3600983.576487634,-160.96422676832958,-4939.400837704029,6903.553058120299,0.9950476703537376,-4.367484189836994e-05,0.00041727539235220714,0.09939797632424277
1.43,1.619506818892834e-05,0.0005581274482052695,-0.006933843497227286,-43.892876765784514,47.29956874020142,4.682584590429439,-1656489.5503177447,5090201.852055688,3601018.0946766576,-160.68853390208722,-4939.401544977591,6903.722551187189,0.9950493872922336,-4.380616380473592e-05,0.00041859678766550143,0.09938078137698501
1.435,1.1140594511474836e-05,0.0005397162770779023,-0.006911666417795397,-43.87841971992891,47.274366675818186,4.676475194933181,-1656490.3530714614,5090177.15504627,3601052.61371293,-160.412952801781,-4939.402222332409,6903.891957825636,0.9950511092864229,-4.3911800632718326e-05,0.00041998846287416846,0.0993635324920773
1.44,5.530161835956588e-06,0.0005526543477691068,-0.006918199736907056,-43.86201051053848,47.23845484840924,4.667252702874282,-1656491.1544475402,5090152.45803346,3601087.1335959863,-160.13747866342356,-4939.402901696724,6904.0612646760865,0.9950528254904839,-4.402541431376971e-05,0.0004213330846743045,0.09934633875286702
1.445,-5.823181872512714e-07,0.0005605351550082674,-0.006893048596788752,-43.84830509234991,47.19998580161782,4.668266961790606,-1656491.9544465751,5090127.761017269,3601121.6543252007,-159.8621353616963,-4939.403574674996,6904.230421065417,0.9950545430037231,-4.4156204930443026e-05,0.0004227084973482869,0.09932912873577311
1.45,-1.1099263006023564e-05,0.0005406265493404796,-0.006914552490475013,-43.83938696709757,47.1832883148865,4.669429479342893,-1656492.7530692348,5090103.063997858,3601156.175899861,-159.58692847729444,-4939.4041895124265,6904.399443027429,0.9950562539638556,-4.4304131566698875e-05,0.00042410199938623704,0.09931198126136204
1.455,6.5609967914203565e-06,0.0005626540876367759,-0.006888572037399873,-43.82460378800379,47.14639690959421,4.667895076344585,-1656493.5503160504,5090078.36697542,3601190.698319507,-159.31179778015087,-4939.404785912403,6904.568415500733,0.9950579699846124,-4.447330046088393e-05,0.00042544336231226056,0.09929478027657453
1.46,-6.788820084701239e-06,0.0005345602888686883,-0.006912794664935518,-43.80209239769453,47.12799826787651,4.667515792374023,-1656494.3461875503,5090053.669950105,3601225.22158368,-159.03680221632413,-4939.4053400575995,6904.7372536773355,0.9950596792364749,-4.46039773020008e-05,0.00042684390862230185,0.09927764387094773
1.465,4.943122566652203e-07,0.0005335473165324323,-0.006889838562504974,-43.78762399666263,47.102791788427034,4.662988389622758,-1656495.1406844181,5090028.972921991,3601259.7456919197,-158.76194491814462,-4939.405905679903,6904.906042232276,0.995061394230716,-4.476091692383262e-05,0.00042817125124155006,0.09926044719556525
1.47,-1.7500176892356545e-05,0.0005320877218652042,-0.006905043946358006,-43.77189526653817,47.055840270244715,4.65519409893385,-1656495.933807272,5090004.275891059,3601294.270643864,-158.4871966037993,-4939.406467076595,6905.0747353274355,0.9950631032322932,-4.489946267962976e-05,0.0004294978836946894,0.09924330758960379
1.475,-1.3204757161410143e-05,0.0005534442667884583,-0.0068859984159890175,-43.75891203722166,47.03926713257389,4.657839280904873,-1656496.7255567575,5089979.578857417,3601328.796438793,-158.2125975562902,-4939.40698961339,6905.2432364664055,0.9950648157083586,-4.508242674172365e-05,0.000430816418759023,0.09922613014765118
1.48,-5.406598475351219e-06,0.0005439382180061904,-0.0068860181130196456,-43.73564942594846,47.00864678712806,4.652635061919829,-1656497.5159334878,5089954.881821202,3601363.3230761243,-157.93809459540907,-4939.407496489371,6905.411696046393,0.9950665231398258,-4.525998254318016e-05,0.0004321891492518665,0.09920900004783748
1.485,-1.0031843720117805e-05,0.0005361279474726838,-0.006886974275082432,-43.731427804813286,46.97442629285175,4.641103879305,-1656498.3049380966,5089930.184782443,3601397.850555473,-157.6637488705775,-4939.408007259827,6905.580043411363,0.9950682302905638,-4.541578142180343e-05,0.0004335401658551247,0.099191869862086
1.49,1.2586671053429544e-05,0.0005643731996480637,-0.006904112315228496,-43.710370106018246,46.94366109460535,4.639936649291301,-1656499.0925711517,5089905.487741175,3601432.3788761585,-157.38947317934912,-4939.408499660458,6905.7482306922675,0.9950699373895991,-4.558115062135573e-05,0.0004348706058735248,0.09917473727403696
1.495,-1.0293927935630444e-05,0.0005479490594240924,-0.0069007477880277555,-43.690647050655016,46.91484622532153,4.641197891878446,-1656499.87883321,5089880.790697488,3601466.908037522,-157.1153502496992,-4939.408975207568,6905.916314638235,0.9950716484120572,-4.5697273967634454e-05,0.0004362769167753881,0.09915756199464709
1.5,-3.6032017677005672e-06,0.0005613155667456622,-0.006863577492758795,-43.68742283880234,46.888992777183326,4.639448274017488,-1656500.6637250201,5089856.093651485,3601501.4380390807,-156.84137375022496,-4939.409426059234,6906.084308918841,0.9950733583175397,-4.586624177484795e-05,0.00043763669797910917,0.09914039508223522
1.5050000000000001,7.3491411434327995e-06,0.0005353504916839689,-0.006891378209747673,-43.65722130130529,46.86170401630017,4.635310526274861,-1656501.4472471057,5089831.396603326,3601535.968880362,-156.56746041956748,-4939.409837218234,6906.252203660249,0.9950750586999874,-4.602183739434145e-05,0.000439031393256,0.09912332059935766
1.51,8.196818936997289e-06,0.0005584916120066097,-0.006861976959849308,-43.648626191275724,46.82000737058925,4.639416640006994,-1656502.229400084,5089806.699553059,3601570.500560892,-156.29373086218098,-4939.410269841175,6906.420008313697,0.9950767657054026,-4.614378314432037e-05,0.00044036420628869327,0.09910617691845659
1.5150000000000001,-2.2713297931524826e-05,0.0005366351799619974,-0.006878782222541196,-43.6277389285637,46.80502105724409,4.622959671482619,-1656503.010184722,5089782.002500849,3601605.033080087,-156.02012437564858,-4939.410614168265,6906.587669782435,0.9950784651048635,-4.626932132116486e-05,0.00044175480058529563,0.09908910634572761
1.52,-1.2883306487528086e-05,0.0005573395638402684,-0.0068563541678713525,-43.61580030417128,46.77015025984235,4.630159717524571,-1656503.789601588,5089757.305446719,3601639.5664373846,-155.74662204038447,-4939.411037774089,6906.755249098197,0.9950801683925042,-4.646635868709485e-05,0.00044308336350505715,0.09907199397385749
1.5250000000000001,1.4029827523348024e-05,0.0005445056195797468,-0.006870996577383432,-43.595455498507995,46.73398961796407,4.6220433245954515,-1656504.567651267,5089732.608390667,3601674.100632318,-155.47324954716032,-4939.411383439799,6906.922724304501,0.9950818658081861,-4.664404518312955e-05,0.00044446586989537547,0.09905493735358527
1.53,1.840196920349218e-05,0.0005494573830856658,-0.0068611684134980856,-43.57148230254213,46.705086438862935,4.617721292667127,-1656505.344334459,5089707.911332893,3601708.635664264,-155.20002725252837,-4939.411725664455,6907.090054160935,0.9950835665723954,-4.675161784259517e-05,0.00044582311208053775,0.09903784424956055
1.5350000000000001,-1.9268282970944544e-05,0.0005337002251812921,-0.006864056091275364,-43.55950730951125,46.667854145750525,4.616645370958517,-1656506.1196519355,5089683.214273395,3601743.171532604,-154.92696338106393,-4939.412073607669,6907.257281742444,0.9950852646031378,-4.6849528948257304e-05,0.00044719375634715485,0.09902077556032873
1.54,-5.008509058859994e-06,0.0005380070237000741,-0.00685162968258947,-43.54883365394401,46.64874669998783,4.6175744567825046,-1656506.8936044017,5089658.517212285,3601777.7082367395,-154.6540230762586,-4939.4123707705585,6907.4243724940125,0.9950869630672082,-4.7037255335546696e-05,0.0004485158755100377,0.099003699702015
1.545,-8.063025139189284e-06,0.0005357451237907344,-0.006822584873603959,-43.530863656163135,46.62484267418152,4.603531385327641,-1656507.666192386,5089633.8201497365,3601812.245776182,-154.38117070867315,-4939.4126483739765,6907.59140458769,0.9950886581581943,-4.7190559460014123e-05,0.00044985223952511967,0.09898665471131995
1.55,4.618959394215459e-06,0.0005668416752427109,-0.006870616333479176,-43.52442788195595,46.57934193812615,4.604971534431153,-1656508.4374163838,5089609.1230856925,3601846.7841505,-154.10842835563565,-4939.412969237252,6907.758322590203,0.9950903457712207,-4.7350869946932646e-05,0.0004511822239663781,0.0989696819506283
1.555,-3.6200739852634533e-06,0.0005507523854236423,-0.006847963272700348,-43.50384424698469,46.55825898843081,4.604019722138688,-1656509.2072769613,5089584.426020272,3601881.323358988,-153.83580261150414,-4939.413199034321,6907.925072606235,0.9950920449413867,-4.748737933582616e-05,0.00045259270011403926,0.09895258965366163
1.56,-7.35100819871041e-06,0.000569277432196788,-0.0068313890906540435,-43.48935245569589,46.528758857068055,4.592736982383211,-1656509.9757747438,5089559.728953693,3601915.8634010665,-153.56331042261823,-4939.413432312808,6908.091758766804,0.9950937382302701,-4.7640379378337255e-05,0.00045396111482207325,0.09893555369333737
1.565,-5.597274895612989e-06,0.0005400238862969544,-0.0068497289134951695,-43.462246641964455,46.49362723829554,4.597740539276117,-1656510.7429103353,5089535.031885917,3601950.4042762457,-153.29092613923433,-4939.413677950993,6908.258312968484,0.9950954271053458,-4.780722413432219e-05,0.00045537469396049094,0.09891855893808191
1.57,1.1193146958713984e-05,0.0005411108257417724,-0.006827772458145685,-43.44678177837915,46.46749892964341,4.594078263851686,-1656511.508684494,5089510.334817012,3601984.9459839487,-153.0187373688198,-4939.413884528413,6908.424768119984,0.9950971202563679,-4.796249262847724e-05,0.00045671592929046615,0.09890151853052173
1.575,1.2841304109020707e-05,0.0005317834263365971,-0.006816289213542809,-43.43143178929671,46.438013163926335,4.591785735379064,-1656512.273097999,5089485.637747092,3602019.488523687,-152.74666463608816,-4939.414083188574,6908.591127099627,0.9950988076866564,-4.807623453768081e-05,0.0004580640226401477,0.09888453269658382
1.58,-5.409597537995218e-06,0.0005480317213469903,-0.006831199103702969,-43.41241759526484,46.40288544906834,4.588654462330903,-1656513.0361514485,5089460.940676233,3602054.0318949544,-152.47471515721153,-4939.414260522769,6908.757379980035,0.9951004919977952,-4.818355724579588e-05,0.0004593893204690011,0.09886757540034606
1.585,3.0888998821077144e-05,0.0005533687589155722,-0.006823760641828221,-43.39803640934719,46.36986749086393,4.586077683181517,-1656513.7978455222,5089436.2436045455,3602088.5760971652,-152.20291435164884,-4939.414414311755,6908.923504441435,0.9951021796819263,-4.834031684026175e-05,0.00046075052702720406,0.0988505810020612
1.59,-4.081940538857238e-06,0.0005274664156935345,-0.006807313811063011,-43.37906572493334,46.34968204470738,4.584376302223409,-1656514.558180904,5089411.546532165,3602123.1211296935,-151.93123836477824,-4939.41453778221,6909.089506851084,0.9951038652342529,-4.840808474463833e-05,0.00046213398193688287,0.09883360503740707
1.595,2.819570358898097e-06,0.0005324027494707635,-0.006816394248593273,-43.35787005718074,46.317190661445565,4.58497161993529,-1656515.317158215,5089386.849459155,3602157.666992075,-151.65968606155084,-4939.41466635827,6909.255445550465,0.9951055464578026,-4.855643287066892e-05,0.00046344435913728553,0.09881667000317854
1.6,1.1470762393160337e-05,0.0005462649336350795,-0.0067966221300805865,-43.33965767995793,46.28947007942214,4.569844824867488,-1656516.074778161,5089362.152385571,3602192.213683885,-151.38829228364037,-4939.414767220946,6909.421278696802,0.9951072296293814,-4.868884165407353e-05,0.00046476872049379495,0.09879971234153914
1.605,1.7607649302445817e-05,0.0005495450907390025,-0.006817083244813102,-43.32438186179535,46.24229979283012,4.579646633697281,-1656516.831041429,5089337.455311385,3602226.76120453,-151.11701492771678,-4939.414907211088,6909.586979293695,0.9951089076122602,-4.880312923975305e-05,0.0004661297068589926,0.09878280382781797
1.61,2.5580760086050406e-06,0.0005585537855958497,-0.006794823200973372,-43.30491471476006,46.21507511007691,4.563909082708063,-1656517.585948735,5089312.758236774,3602261.3095533173,-150.84590748991621,-4939.414937258428,6909.752535610983,0.9951105903550456,-4.890298353571294e-05,0.00046750036642304363,0.09876584437515999
1.615,8.947308381639117e-06,0.000513075973166083,-0.006795967697604877,-43.29237951065041,46.18358410281854,4.562755644266434,-1656518.339500805,5089288.0611619,3602295.858729558,-150.57492043755502,-4939.415012502184,6909.917960710622,0.9951122672991303,-4.904247615379918e-05,0.0004688897242319142,0.09874894028822027
1.62,-5.547684993215366e-06,0.0005365049731000926,-0.006808066812046507,-43.277037625004006,46.1545173488096,4.563077939865097,-1656519.0916982284,5089263.36408674,3602330.408732641,-150.3040489576092,-4939.415051476583,6910.083272378137,0.9951139442908659,-4.9154847875963785e-05,0.0004701675202665277,0.09873203332343283
1.625,8.584650669458413e-06,0.0005376169747593006,-0.006790334773039063,-43.25821725441961,46.12501078747219,4.5536096059913005,-1656519.8425416087,5089238.667011462,3602364.959562039,-150.03330321181303,-4939.415059705981,6910.2484868433185,0.9951156239502339,-4.9309077212501094e-05,0.0004715000231884479,0.09871509624408968
1.6300000000000001,-1.0940805359612632e-06,0.0005403084744852795,-0.006772506443305302,-43.249117281773984,46.09487530830849,4.550587604998981,-1656520.5920315844,5089213.969936108,3602399.5112172007,-149.76268703010345,-4939.415081856524,6910.413577773482,0.9951172989446678,-4.942840179135007e-05,0.0004728387822719167,0.09869820323282355
1.635,3.6309159256698607e-06,0.0005225553596685662,-0.006781317381406944,-43.21910227637502,46.06859357470967,4.5535297568914155,-1656521.3401687173,5089189.272860725,3602434.0636975267,-149.49216614332272,-4939.415071200032,6910.578552734533,0.995118969247837,-4.9572448078687746e-05,0.00047418185113308215,0.09868135455731704
1.6400000000000001,-4.063845526882751e-06,0.0005411189279603214,-0.00678643507170662,-43.20232691897682,46.02262549826093,4.550059546410326,-1656522.0869537208,5089164.575785408,3602468.617002561,-149.2218352761801,-4939.4150557863,6910.743461014348,0.9951206414589286,-4.970037020911042e-05,0.00047548191828468775,0.09866448393008047
1.645,-1.9360317508835576e-05,0.0005346657407111574,-0.006789047273039629,-43.174580067155375,45.98973010728142,4.549254751380418,-1656522.8323874634,5089139.878710297,3602503.1711316984,-148.9516617743608,-4939.4149885149745,6910.908193913795,0.9951223146213457,-4.9852020360672685e-05,0.0004768262691386045,0.09864760054933248
1.6500000000000001,-1.2366141415900074e-05,0.0005334560566814646,-0.006778735841860426,-43.16627650741591,45.96946813544396,4.543303983945458,-1656523.5764708056,5089115.181635547,3602537.7260842356,-148.68167506202144,-4939.414911383399,6911.072820926049,0.9951239881454124,-5.004013678461726e-05,0.00047815079285156977,0.09863071066038867
1.655,7.094952544263853e-06,0.0005602726556323498,-0.006759036659186988,-43.15530091687455,45.93331108952712,4.546392493582246,-1656524.3192043898,5089090.4845611835,3602572.281859696,-148.41175867923062,-4939.414834111378,6911.23736321943,0.9951256588412349,-5.0210542407024415e-05,0.0004794740328535203,0.09861384638757141
1.6600000000000001,-8.93022997094514e-06,0.0005364042540629235,-0.006764749110438213,-43.13588469011236,45.89490272078444,4.523177517451932,-1656525.060588698,5089065.787487374,3602606.838457563,-148.1419645379071,-4939.414689889339,6911.401783623418,0.9951273243639973,-5.033912003689277e-05,0.0004808687877376073,0.09859703106754183
1.665,-2.4756873233334026e-05,0.0005199793330734324,-0.00673140330149662,-43.12067174676581,45.87621394507262,4.522699249821868,-1656525.8006243613,5089041.090414163,3602641.3958770377,-147.8723007494401,-4939.41459433278,6911.566006266568,0.9951289910352648,-5.050168887830312e-05,0.0004822002114294529,0.0985802015298787
1.67,-7.314010158966851e-06,0.0005179646055967137,-0.0067658559118549755,-43.09679892564829,45.82822961189111,4.520015496488009,-1656526.5393119694,5089016.39334144,3602675.954117482,-147.60274253002018,-4939.414494746593,6911.730171458018,0.9951306492212865,-5.069954345565681e-05,0.00048348687642143715,0.0985634549435928
1.675,8.726033106923777e-06,0.0005424480158276374,-0.006774209845744116,-43.08345390553829,45.79980584478127,4.520565528926991,-1656527.276652271,5088991.696269329,3602710.513178313,-147.33337805730744,-4939.414349975154,6911.894160912127,0.995132315616432,-5.085354839650274e-05,0.0004847728226876214,0.0985466225961351
1.68,3.946763092374093e-06,0.0005314887637346756,-0.006737066176115257,-43.07307999307039,45.76338489028399,4.524718857145015,-1656528.0126460395,5088966.999198026,3602745.073058852,-147.064129394518,-4939.414170879442,6912.05805468481,0.9951339837552605,-5.097369042714598e-05,0.00048612363006402806,0.09852976941454855
1.685,2.499580071202594e-06,0.000537154940557985,-0.006762113279757491,-43.03722156845561,45.73273239105464,4.519978796651595,-1656528.747293868,5088942.302127802,3602779.633758559,-146.79500207219792,-4939.4139187368355,6912.221827967862,0.9951356424717565,-5.110297780565866e-05,0.00048744599997285775,0.09851300861920406
1.69,1.6809886722551584e-06,0.0005382377329913407,-0.006737430224937338,-43.01927188236952,45.70593541004838,4.514435571370481,-1656529.4805965954,5088917.605058771,3602814.1952768783,-146.5260888394441,-4939.413693851772,6912.385499923895,0.9951373070647037,-5.123729153113215e-05,0.0004887821066624723,0.09849618548350977
1.695,8.649111281658823e-06,0.0005316303603793092,-0.006753726916420515,-42.99821135243143,45.677209887135405,4.501061971269731,-1656530.2125550709,5088892.907990857,3602848.7576133017,-146.25730136312723,-4939.413471747991,6912.549069491919,0.9951389652930951,-5.137387823476579e-05,0.0004901207086212928,0.09847942372802426
1.7,1.7753590003249122e-05,0.0005361781557104495,-0.006736858713926578,-42.9864868607575,45.64271552375161,4.497110537361286,-1656530.9431699417,5088868.210923964,3602883.3207672494,-145.98864696349514,-4939.413285151365,6912.712509419037,0.9951406272579087,-5.149152254063096e-05,0.0004914445857536771,0.09846262139298449
1.705,1.829265619010347e-05,0.0005425811872157593,-0.006721979314581143,-42.97352517432039,45.606000470003025,4.506567297412826,-1656531.6724418243,5088843.51385809,3602917.8847380606,-145.72010607691826,-4939.413064600643,6912.875815058863,0.995142284781327,-5.158761498525591e-05,0.0004927820202837063,0.09844586098358224
1.71,-2.2279050009540333e-06,0.0005239730372687635,-0.006744776841886457,-42.94645827297103,45.57353398515441,4.499653196076125,-1656532.4003713531,5088818.816793542,3602952.449525138,-145.45170543169618,-4939.412754634549,6913.039015870456,0.9951439383514196,-5.16839238454068e-05,0.0004941355190829424,0.09842913756244624
1.715,1.9556358451787374e-05,0.0005521896132262371,-0.006706347801618152,-42.93998542481481,45.54106782052057,4.498188978652919,-1656533.1269593162,5088794.11973051,3602987.015127914,-145.18347978051904,-4939.412458299281,6913.202094735305,0.9951455972679404,-5.1826734173304e-05,0.0004954376707737047,0.09841235742394505
1.72,4.930617039658182e-06,0.0005266627337337787,-0.006719810041501939,-42.91889188241686,45.50399416274313,4.489760154580747,-1656533.8522063745,5088769.422669084,3603021.5815457767,-144.91534360010576,-4939.412112159404,6913.365050225256,0.9951472464144632,-5.1922242753279936e-05,0.0004968153859077559,0.09839567283303123
1.725,-1.7770026501258146e-05,0.0005225951504427873,-0.006708312489258252,-42.89119896218913,45.475611430548305,4.480999069650897,-1656534.576113138,5088744.725609397,3603056.1487780423,-144.64736180376332,-4939.411762775363,6913.527855945505,0.9951488986202537,-5.2047875618623566e-05,0.0004981259938697481,0.09837895474342602
1.73,-2.2110748367333872e-05,0.0005423119422418734,-0.006723763883666236,-42.87131407759357,45.43795510635633,4.475759992031196,-1656535.298680413,5088720.028551376,3603090.716824061,-144.37954814354512,-4939.411444990689,6913.690551614824,0.995150547718275,-5.22289700406997e-05,0.000499420900395063,0.09836226525917394
1.735,1.706914177600956e-05,0.0005187501055416726,-0.00669943117693972,-42.852447520946924,45.41091378501047,4.477031391377172,-1656536.0199090047,5088695.331494995,3603125.2856831974,-144.11188853541614,-4939.411107630072,6913.853103035692,0.9951522003083907,-5.242573138994308e-05,0.0005007637902934787,0.09834553730870428
1.74,-1.0253433068907229e-05,0.0005098992359941281,-0.0066939110490631445,-42.83599459594808,45.380575959186984,4.470359200117812,-1656536.7397996457,5088670.634440358,3603159.8553548823,-143.84436790559346,-4939.410747429355,6914.015570761287,0.9951538466686812,-5.251919437356897e-05,0.0005020576971234605,0.09832886982127859
1.745,-7.5261070796319465e-06,0.0005383495800970441,-0.006690469058565126,-42.81834284896062,45.33634364640126,4.470223086440788,-1656537.4583529932,5088645.937387532,3603194.425838602,-143.57697104244642,-4939.410383118015,6914.177917197423,0.9951554913989514,-5.267845008747119e-05,0.0005033228680997225,0.09831221607502728
1.75,2.971306306307271e-06,0.0005180622263137074,-0.0066921611547143016,-42.80195480394775,45.30649489943342,4.469470053764033,-1656538.1755697618,5088621.240336675,3603228.997133658,-143.30973641255167,-4939.409959376107,6914.340105078838,0.9951571349675441,-5.2837908712816016e-05,0.000504659491001598,0.09829557085719927
1.7550000000000001,1.3022411733154186e-05,0.0005394646222739171,-0.006672241685007629,-42.774989998342,45.27787734081397,4.470156056460103,-1656538.8914506827,5088596.543288004,3603263.5692393957,-143.04263197468524,-4939.409509181201,6914.502190136872,0.9951587786987164,-5.296626762598638e-05,0.0005059482203987921,0.09827892139137512
1.76,1.663590520880891e-05,0.0005325446719641635,-0.006693918698982868,-42.75678038644382,45.2447595678874,4.464306020882698,-1656539.605996525,5088571.846241603,3603298.142155346,-142.77570490296836,-4939.40905127348,6914.664189935424,0.9951604172305246,-5.307485372520753e-05,0.0005072926687766147,0.09826232143999244
1.7650000000000001,-1.5076566705140857e-05,0.0005340999017769588,-0.006683460024203204,-42.73519494565835,45.21098795540113,4.460001142986399,-1656540.3192080758,5088547.149197516,3603332.715880973,-142.50891544849708,-4939.4085831228795,6914.826060815937,0.9951620608170872,-5.3172777360791696e-05,0.0005086207856597102,0.09824566752707321
1.77,2.3292293055281326e-05,0.0005180688056701856,-0.006683558842692935,-42.71911580120228,45.1803808673896,4.448584599436326,-1656541.0310860693,5088522.452155799,3603367.290415643,-142.24228193259148,-4939.408104033592,6914.987807181887,0.9951637015486239,-5.334996729144182e-05,0.0005099449840218088,0.09822903964681635
1.7750000000000001,9.609223904716378e-06,0.0005448830734886771,-0.006659805649621341,-42.70505881308953,45.140977541630896,4.452011042716284,-1656541.741631186,5088497.755116443,3603401.8657587045,-141.9757648241173,-4939.407638106403,6915.149417525554,0.9951653420504254,-5.3427762293890766e-05,0.0005112387206557343,0.098212411446337
1.78,-1.3135760997677509e-05,0.0005288249285987348,-0.0066724963248235266,-42.678189819147974,45.1087508495911,4.4511790666268345,-1656542.4508440725,5088473.058079592,3603436.4419094883,-141.70938974735964,-4939.407102421317,6915.310895973414,0.9951669764053704,-5.354615294776384e-05,0.0005125958122761939,0.09819584232815465
1.7850000000000001,1.5480858229945204e-05,0.0005250032161547315,-0.006655351668282389,-42.66627214789156,45.06301562887901,4.438692223620301,-1656543.1587255371,5088448.361045445,3603471.0188674037,-141.4431960268963,-4939.406556391971,6915.472270110596,0.9951686136150912,-5.371720538655926e-05,0.0005139073670584201,0.09817924164046772
1.79,1.4251705312929002e-05,0.0005149587127888652,-0.006669963734845204,-42.643823217985634,45.0411700689931,4.435920443157241,-1656543.8652763409,5088423.664014093,3603505.5966316797,-141.17712548377966,-4939.405984343363,6915.633440338854,0.9951702463475046,-5.3816101848248024e-05,0.0005152164397737542,0.09816268354366839
1.795,-6.137726657705554e-06,0.0005262166119882129,-0.0066702060166752035,-42.626807127705305,45.00583936546539,4.445022374756985,-1656544.5704971433,5088398.966985571,3603540.1752016293,-140.91119547616987,-4939.4054245108255,6915.794539435345,0.9951718824008022,-5.391561016832112e-05,0.0005165002187597777,0.0981460890686683
1.8,-1.6466959368284591e-06,0.0005329161426683492,-0.006641483078838934,-42.60329337799626,44.97816037880003,4.435971726676967,-1656545.274388684,5088374.269960039,3603574.754576831,-140.645420810706,-4939.404787952119,6915.955541404776,0.9951735182178555,-5.4068608556582003e-05,0.0005178070035729793,0.09812949398824133
1.805,-7.674515969787573e-06,0.0005128616863978931,-0.006667725574735738,-42.57968346372185,44.927923567088996,4.43177232298314,-1656545.9769517204,5088349.572937627,3603609.334756764,-140.37979374740058,-4939.404177088427,6916.116431815171,0.9951751467031388,-5.4212039914250076e-05,0.0005191315618696476,0.09811297033452089
1.81,8.873279353021938e-06,0.000527086649734,-0.0066561702269910756,-42.5647706344867,44.8963720272326,4.418463753200496,-1656546.6781871072,5088324.875918382,3603643.9157406753,-140.11436099775506,-4939.403520933831,6916.27713257442,0.9951767813733147,-5.436558315112071e-05,0.0005204047437056251,0.09809638137431934
1.815,-9.312583218096632e-06,0.0005237599061107559,-0.00665133928242347,-42.548361203188655,44.86773695333514,4.420966407211755,-1656547.378095606,5088300.178902377,3603678.4975277246,-139.8490385814638,-4939.4028807797595,6916.4376871575805,0.995178412915659,-5.448142992849358e-05,0.000521717376047079,0.09807982111231368
1.82,6.385518797192332e-06,0.0005290578692082603,-0.006641052160052141,-42.520692035743,44.83090378939806,4.413829725220577,-1656548.0766778234,5088275.481889666,3603713.0801173244,-139.58384836836527,-4939.402204060744,6916.598152848733,0.9951800429982336,-5.464170011831452e-05,0.0005230172729772956,0.09806327286630197
