t_s,gyro_x_radps,gyro_y_radps,gyro_z_radps,accel_x_mps2,accel_y_mps2,accel_z_mps2,ins_pos_ecef_x_m,ins_pos_ecef_y_m,ins_pos_ecef_z_m,ins_vel_ecef_x_mps,ins_vel_ecef_y_mps,ins_vel_ecef_z_mps,ins_quat_w,ins_quat_x,ins_quat_y,ins_quat_z
0.0,1.4218615223175496e-05,0.0006097373633230751,-0.0074153405047693004,-45.30605436288946,51.87442460605304,5.1374578402321145,-1653639.850072476,5089380.142985015,3585590.067023642,-242.6143302865707,-4938.608152381165,6852.28340073394,0.9945218953682734,0.0,0.0,0.10452846326765354
0.005,4.1477697006947814e-06,0.0006087201221304421,-0.0074025104419380055,-45.316155533973905,51.86810555701812,5.140878974619094,-1653641.06241627,5089355.4499330325,3585624.328904766,-242.32318721250527,-4938.612640740285,6852.469048960798,0.9945238329815922,-1.2398546355140343e-07,1.5197085205324127e-06,0.10451002645333743
0.01,-1.7359915434230692e-07,0.0006064967159532513,-0.007381144219626411,-45.30610370783649,51.86421826449319,5.149366164614971,-1653642.2733042897,5089330.756858711,3585658.5917140916,-242.03202070994496,-4938.617087627954,6852.65468130457,0.9945257668992309,-2.7274433828112177e-07,3.0342566071624433e-06,0.10449162150247064
0.015,1.1513366627484915e-05,0.0006133917239493458,-0.007381753233034905,-45.317163515324644,51.85967561232047,5.145515352360699,-1653643.4827366488,5089306.063762192,3585692.855451643,-241.74092291448332,-4938.6215202118365,6852.840339132869,0.9945276948934849,-4.3166651423500247e-07,4.542147753388253e-06,0.10447326963886017
0.02,5.252427829740839e-06,0.0006009087311231845,-0.007397963472858459,-45.318788888091255,51.8558997648531,5.138620090326892,-1653644.690713418,5089281.370643537,3585727.120117408,-241.44978479548928,-4938.625942046105,6853.025967074862,0.9945296227057517,-5.633320291826387e-07,6.070234527238449e-06,0.10445491622508789
0.025,7.057011844862527e-06,0.0006160480917531551,-0.007385288806951281,-45.32403759131936,51.85464557995636,5.145159659196704,-1653645.897234488,5089256.677502715,3585761.3857112457,-241.15864324314413,-4938.630386335952,6853.211567867867,0.9945315544095593,-7.073047377625541e-07,7.565649546216777e-06,0.10443652247162648
0.03,3.1367694079445585e-06,0.00059329007657462,-0.007368374882828319,-45.334997631631275,51.85545243960998,5.138802227796084,-1653647.1022998327,5089231.984339753,3585795.6522331308,-240.8674946450203,-4938.634798423283,6853.3971861867085,0.9945334824619279,-8.507431724483171e-07,9.099177175852013e-06,0.10441816019558775
0.035,4.373949753731305e-06,0.0006163950775733746,-0.007378903982190965,-45.34215354793003,51.84916254946103,5.139347499275206,-1653648.3059093023,5089207.291154702,3585829.91968307,-240.57629315748898,-4938.639222037085,6853.582789409897,0.9945354057589786,-9.979873778062043e-07,1.0575097456868398e-05,0.10439983993759382
0.04,-5.18160867581939e-06,0.0006070086705451904,-0.007380410277445812,-45.341937706384705,51.850850508057235,5.143399347362487,-1653649.5080627291,5089182.597947593,3585864.1880609714,-240.28507761744004,-4938.643621640003,6853.768371302015,0.9945373314632782,-1.1481862080584307e-06,1.2108787465427402e-05,0.1043814934648887
0.045,6.67821441984363e-06,0.0006043845791077473,-0.007388782448495751,-45.33871938688022,51.83673349242669,5.13965016342331,-1653650.7087601004,5089157.904718497,3585898.4573668507,-239.99387088111416,-4938.648016803516,6853.953980389916,0.9945392572200701,-1.3196940645074743e-06,1.361664607637032e-05,0.1043631432115601
0.05,-1.3010168929664044e-05,0.0006087968257941286,-0.007384558254392707,-45.3452831359389,51.83695757221307,5.145504497999752,-1653651.908001541,5089133.211467434,3585932.727600635,-239.70270533738235,-4938.652408454489,6854.139533347344,0.9945411848201096,-1.4610299103011845e-06,1.5121074571187092e-05,0.10434477210589532
0.055,-1.1631303500946415e-07,0.0006089396113203071,-0.007411378356493571,-45.353418309416874,51.835822891693795,5.138186939711167,-1653653.1057871126,5089108.5181944845,3585966.9987622355,-239.41152327070424,-4938.656771249433,6854.325106775679,0.9945431109765345,-1.6524688533488304e-06,1.6631337529175362e-05,0.10432641146797286
0.06,1.2740526003518518e-05,0.0005930143345202959,-0.0073766683621032895,-45.35168728830376,51.829462584324716,5.1252375561350325,-1653654.3021166788,5089083.824899679,3586001.270851645,-239.12030325889825,-4938.661150788008,6854.510656972853,0.9945450437856176,-1.811887412836182e-06,1.8145318310828725e-05,0.10430798410921621
0.065,-1.9745114547448734e-05,0.000609165991297198,-0.007407144285671917,-45.354799650740944,51.828347393159014,5.137501348506657,-1653655.4969901666,5089059.131582858,3586035.5438686763,-238.82909180965734,-4938.665577726314,6854.696155527674,0.9945469672020764,-1.9351847994803275e-06,1.9623055908094887e-05,0.10428964301570313
0.07,-3.016189297063691e-06,0.0006091948493162919,-0.007403011624629978,-45.35952735731815,51.82206561709051,5.132333212307516,-1653656.690407621,5089034.438244027,3586069.81781329,-238.53788992506503,-4938.669954599669,6854.8816899975545,0.9945488982215047,-2.1434660450529902e-06,2.1132482514687335e-05,0.10427122611351126
0.075,1.4817942436002826e-05,0.0005919763156964467,-0.007384541349241432,-45.36593917375839,51.81751127746477,5.135817486295234,-1653657.8823690396,5089009.7448833035,3586104.0926854885,-238.24667752722056,-4938.674335065693,6855.067189329459,0.9945508278205673,-2.310160258766599e-06,2.2646341751780165e-05,0.10425281944979134
0.08,6.3331315726183435e-06,0.0005997607477814509,-0.007410897642751171,-45.360025545950506,51.81069599151684,5.143226304348449,-1653659.0728743707,5088985.051500752,3586138.36848517,-237.95545500591868,-4938.678685457589,6855.252683279525,0.9945527522647055,-2.4280233480883306e-06,2.4122037466885508e-05,0.10423445867337464
0.085,-4.2038691609098163e-05,0.0006054779719587457,-0.007399506648820591,-45.373433084499965,51.811715818657255,5.129815802660919,-1653660.261923725,5088960.358096512,3586172.645212339,-237.66428664212773,-4938.683010550567,6855.438184223821,0.9945546832340227,-2.569013021143867e-06,2.5614877060419966e-05,0.1042160323297279
0.09,1.3446559677681031e-05,0.000596765084070283,-0.007404133982058401,-45.37016261323302,51.79686726633116,5.132592205813664,-1653661.449517054,5088935.66467056,3586206.922866922,-237.37304501545697,-4938.68737046086,6855.6236491517175,0.9945566108917245,-2.831762588109803e-06,2.7109329149756822e-05,0.10419763427560275
0.095,2.8526172729535545e-06,0.0006157853609346927,-0.007398586132984997,-45.38137946920026,51.798855673540494,5.142286624398942,-1653662.6356543028,5088910.971222884,3586241.201448728,-237.08185448936192,-4938.691699620577,6855.809073263717,0.9945585394129958,-2.954284753270333e-06,2.859657112617029e-05,0.10417922467650145
0.1,-1.3748751850939086e-05,0.0006008445251481992,-0.007407455243162241,-45.38009406064662,51.80177272081734,5.136727178406098,-1653663.82033551,5088886.2777536865,3586275.4809577405,-236.7906283203079,-4938.695979231392,6855.994531769784,0.9945604661451035,-3.1081010547401443e-06,3.01283459088786e-05,0.10416082883626089
0.105,-3.945961949215104e-06,0.0006059909062610577,-0.007395382176557942,-45.392617064566686,51.79095983605476,5.140498540943742,-1653665.0035605836,5088861.584262996,3586309.7613940616,-236.49940118732397,-4938.700297325842,6856.179996524054,0.9945623948447748,-3.2993050621050205e-06,3.1618648669853726e-05,0.1041424109093018
0.11,-3.3474045515314797e-06,0.0006052497434173323,-0.007423462070200059,-45.38877700995252,51.783041177713464,5.137795444377875,-1653666.1853294577,5088836.890750859,3586344.042757618,-236.20814840505557,-4938.704557355035,6856.365426071919,0.9945643200580409,-3.467474289837537e-06,3.312429972775853e-05,0.10412402296417697
0.115,4.300336777256793e-07,0.0005883184858631119,-0.007399272982093356,-45.403161454489286,51.77974040003111,5.132438892683079,-1653667.3656421525,5088812.197217403,3586378.3250482534,-235.91692956768262,-4938.708825168307,6856.550828091546,0.9945662522373139,-3.633964649971531e-06,3.4628263506016264e-05,0.10410556516489212
0.12,3.1621774389926804e-05,0.0006104530906549694,-0.00740787467782577,-45.39916560608917,51.77682433452128,5.137974555280057,-1653668.5444986047,5088787.503662629,3586412.608265819,-235.6256513219115,-4938.713084201161,6856.73619828077,0.9945681777788881,-3.7866540379842452e-06,3.609111247949395e-05,0.10408716747358927
0.125,-1.3283396974071136e-05,0.0006168806838208056,-0.007414367627331979,-45.41130662525965,51.76220578452353,5.139504127378962,-1653669.721898756,5088762.810086593,3586446.892410276,-235.3344091133685,-4938.717330287125,6856.921584393188,0.9945701052141188,-3.867548239792746e-06,3.761711394282584e-05,0.10406874835593798
0.13,1.3075405300585041e-05,0.0006213223815515488,-0.00738716036350217,-45.40937338534429,51.756988576460046,5.1366079265965014,-1653670.8978426463,5088738.116489469,3586481.177481522,-235.04314706253976,-4938.721519193063,6857.106913968023,0.9945720339938335,-4.061768682331967e-06,3.9147413997957684e-05,0.10405031306224388
0.135,-8.54336276180142e-09,0.000624084185661918,-0.007392449524387782,-45.40300486299899,51.754217109886376,5.132629847559055,-1653672.0723302772,5088713.422871374,3586515.463479369,-234.75190524317097,-4938.725718892324,6857.292224815372,0.994573955353223,-4.1916025418660256e-06,4.069561489080392e-05,0.10403194537901622
0.14,1.680059061150602e-05,0.0006128505475710923,-0.007395797614780394,-45.40169973354914,51.74922251632184,5.137070888454974,-1653673.2453617842,5088688.729232206,3586549.7504037498,-234.4606976264466,-4938.729948315245,6857.477527619326,0.9945758777459321,-4.354687614149432e-06,4.224727988875132e-05,0.10401356451017751
0.145,-2.797338730881547e-05,0.0006037415890623361,-0.007382178349949893,-45.41954746937987,51.753406100488654,5.132544157419006,-1653674.4169373193,5088664.035571938,3586584.0382546503,-234.16951641546177,-4938.7341587740075,6857.66283256012,0.9945778006683957,-4.473057013751587e-06,4.377538401690376e-05,0.10399517527907007
0.15,1.944097587909245e-05,0.0006127868037755585,-0.007370821251703055,-45.41013632761122,51.73970965886431,5.138942068423826,-1653675.5870567295,5088639.341890624,3586618.32703207,-233.87824765404,-4938.738367064269,6857.848135373196,0.9945797197088252,-4.700384713211746e-06,4.526919866831529e-05,0.10397681988078315
0.155,-2.086764582848522e-05,0.0006092810190484905,-0.007386903339432241,-45.41349431415463,51.72763602512233,5.134339871353272,-1653676.7557199986,5088614.648188342,3586652.616735952,-233.58705995526708,-4938.742545569428,6858.033417410209,0.9945816354560606,-4.812168947282414e-06,4.679782889221955e-05,0.1039584926802717
0.16,-1.619298032126407e-05,0.0006146456224047843,-0.00738087477760355,-45.41794340329036,51.72588088666613,5.130989113480273,-1653677.9229273463,5088589.954465191,3586686.9073661044,-233.29587914157145,-4938.74671495339,6858.218643571929,0.9945835550421177,-5.023269458229342e-06,4.830726587496024e-05,0.1039401254615258
0.165,-4.954295788732789e-06,0.0006028877404837527,-0.007379628841589221,-45.424624797005315,51.71888040705972,5.12467990512873,-1653679.0886787518,5088565.260721174,3586721.198922359,-233.00468305884007,-4938.750891644025,6858.403858261684,0.9945854727198161,-5.22413986966234e-06,4.983125649582563e-05,0.10392177319625683
0.17,-1.8804552690089595e-05,0.0006026907955371633,-0.007388602939605281,-45.43542166804127,51.71044085205229,5.1365657213924765,-1653680.2529741284,5088540.566956269,3586755.49140458,-232.7134675181141,-4938.755070714332,6858.589030022563,0.9945873897345391,-5.39401079332418e-06,5.132893142957645e-05,0.10390342399209744
0.17500000000000002,1.3259047466453602e-05,0.0006020320652352743,-0.00738665119759183,-45.43336652414647,51.70794838895638,5.1200577194808785,-1653681.4158133972,5088515.87317067,3586789.7848126558,-232.42224004868234,-4938.759168664618,6858.774200366893,0.9945893087390015,-5.598269935729648e-06,5.282251880451377e-05,0.10388505244026172
0.18,2.636533391726689e-06,0.0005865887804253644,-0.007398369418626953,-45.43245984497537,51.70259024064818,5.139349702760503,-1653682.5771965245,5088491.179364405,3586824.0791464695,-232.13101089247198,-4938.763337521023,6858.959325032978,0.9945912268955898,-5.722632453101927e-06,5.432279559529653e-05,0.10386668570148377
0.185,-5.44267593951145e-06,0.0006043350107075191,-0.007374688591236673,-45.42673118828562,51.704440657130476,5.126979229322317,-1653683.7371236167,5088466.485537493,3586858.374406011,-231.8398260339474,-4938.767427211483,6859.144491529978,0.9945931477550485,-5.869399101165077e-06,5.5781914497470256e-05,0.10384828979156387
0.19,-3.3616621406110943e-06,0.0005987507265986786,-0.007387780710072365,-45.438624688141545,51.68649454710723,5.13157956568636,-1653684.8955948153,5088441.791689952,3586892.670591351,-231.54865329639915,-4938.7715889826295,6859.329644687453,0.9945950621225133,-6.0408585495687466e-06,5.728306189538846e-05,0.1038299527288388
0.195,-8.859840448822292e-06,0.0005908250066176909,-0.007387903924184978,-45.44392509790595,51.68253298908267,5.123216452173487,-1653686.0526101277,5088417.0978217935,3586926.9677023045,-231.2574717492344,-4938.775674386676,6859.514736562175,0.9945969795482688,-6.205695915779171e-06,5.877086400136464e-05,0.10381158307691757
0.2,-2.5083890157582875e-05,0.0006131443184497301,-0.007383162749063958,-45.44178809047909,51.68115743914723,5.127143451343449,-1653687.208169479,5088392.403933157,3586961.265738629,-230.96626872584642,-4938.779780055533,6859.699793283034,0.9945988966655982,-6.382147522964734e-06,6.023753190588123e-05,0.10379321308391366
0.20500000000000002,1.8026561642123725e-05,0.0006402561384662523,-0.007377646476859528,-45.438294664984575,51.6740217898801,5.1191945229057,-1653688.3622728721,5088367.71002401,3586995.5647002775,-230.6750885207002,-4938.7838787877035,6859.884866057915,0.9946008122077257,-6.60473095153931e-06,6.175548690705445e-05,0.10377485484629595
0.21,4.989026668755954e-06,0.0006083050851473098,-0.007397270490954383,-45.44450618295306,51.672251933962194,5.130753622588222,-1653689.5149204247,5088343.016094296,3587029.864587191,-230.3839325075701,-4938.788007038055,6860.069899476874,0.9946027259742061,-6.7271531132329495e-06,6.335204002584829e-05,0.10375651028221251
0.215,7.608559629169539e-06,0.0005996955953659278,-0.0073869063953835926,-45.45040827809639,51.65223911838344,5.125414912935211,-1653690.666112187,5088318.322144078,3587064.1653993437,-230.09277248109356,-4938.792080074963,6860.254961585975,0.9946046444941498,-6.873708475753478e-06,6.486576445819764e-05,0.10373811688984313
0.22,8.153712158225105e-06,0.0005971778329335827,-0.007398911883091559,-45.45234005834184,51.64988684624745,5.13030566160734,-1653691.815848172,5088293.628173569,3587098.4671365763,-229.8016214911704,-4938.796123560768,6860.439931404336,0.9946065599857109,-7.011515825449488e-06,6.6358760813581e-05,0.10371974923197576
0.225,-7.000729509954969e-06,0.0006017522858210047,-0.007386134128458301,-45.45571848698438,51.641295426448345,5.118504579796457,-1653692.9641284212,5088268.934182896,3587132.7697986863,-229.51047813777643,-4938.800145665948,6860.624912544047,0.9946084782487359,-7.147316779488887e-06,6.784563783583487e-05,0.10370135168655766
0.23,-1.231089502210046e-05,0.0006203482446250767,-0.007385459599849836,-45.451594867273805,51.649780061943076,5.126356535749867,-1653694.1109529315,5088244.240172044,3587167.073385547,-229.21932595893054,-4938.804194977594,6860.809831803372,0.9946103928560864,-7.321983346563679e-06,6.933996069693084e-05,0.10368298588013294
0.23500000000000001,-5.423020596048763e-06,0.000599228467555622,-0.007367527049168226,-45.467121386279224,51.63126732417858,5.124355206974905,-1653695.2563217275,5088219.546140936,3587201.377897176,-228.92819250958158,-4938.808248471091,6860.994819785561,0.9946123069438512,-7.514673870048911e-06,7.087914644675802e-05,0.10366462171592973
0.24,-2.3320252207082703e-05,0.00062040257546836,-0.007373580177487554,-45.460673306159336,51.6185404875964,5.122932700137828,-1653696.4002347752,5088194.852089708,3587235.683333532,-228.6370265399678,-4938.812242839125,6861.179722654349,0.9946142160474998,-7.684760867411085e-06,7.236760260597253e-05,0.10364630210524647
0.245,1.1189495644245594e-06,0.0005786282088925144,-0.007388931746306652,-45.46186247154276,51.61412062047128,5.115427804012585,-1653697.5426921328,5088170.1580185145,3587269.989694299,-228.3459165324138,-4938.816234285881,6861.364584241296,0.9946161263754175,-7.904837604707545e-06,7.390407134132098e-05,0.10362796741064338
0.25,5.067882173168323e-06,0.0006070933707783524,-0.007373470345915055,-45.465241373939705,51.605925496103225,5.1174850310122215,-1653698.6836939375,5088145.463927303,3587304.296979297,-228.05480535344904,-4938.82025002443,6861.549414717776,0.994618040347742,-8.053325633421565e-06,7.534299756331135e-05,0.1036095945045351
0.255,1.1401321501464938e-05,0.0006234372729730017,-0.007393257345565074,-45.46031130327138,51.59440036336738,5.12075423775969,-1653699.8232402068,5088120.769816081,3587338.6051883926,-227.7637023531787,-4938.82423925219,6861.734223642369,0.9946199499690435,-8.199364707766344e-06,7.685372684786578e-05,0.10359126000707113
0.26,-2.349704303800261e-06,0.0006328414079544994,-0.007388367319747598,-45.45876693717288,51.586835519590686,5.113459576810732,-1653700.9613310937,5088096.075684966,3587372.914321472,-227.472652344833,-4938.828206662285,6861.919007994289,0.9946218643705006,-8.333891881854936e-06,7.840673585080529e-05,0.1035728762711536
0.265,-5.169287698492623e-06,0.0006191347034964261,-0.007357147488314864,-45.466098590839806,51.57722797226109,5.12333206318036,-1653702.097966773,5088071.381533959,3587407.22437837,-227.18161943080057,-4938.83219596333,6862.103751444532,0.9946237771616248,-8.505045805128629e-06,7.997956824109929e-05,0.1035545046614367
0.27,2.0500855037142783e-05,0.0006182556606415261,-0.00735696047751144,-45.46340657285439,51.572455627321105,5.110402853351007,-1653703.2331472957,5088046.6873631785,3587441.5353589645,-226.89058961315692,-4938.836116530249,6862.28848612412,0.9946256815326981,-8.679656067357177e-06,8.151758878103758e-05,0.10353621064710691
0.275,1.966265604362587e-06,0.000577037861005853,-0.007363686124066417,-45.47306599931647,51.56645658899136,5.114878169867618,-1653704.3668726939,5088021.993172662,3587475.8472631206,-226.59956966863277,-4938.840089922721,6862.473176398336,0.9946275855172498,-8.790208298570879e-06,8.30600679740295e-05,0.10351791705730602
0.28,-2.602758443481853e-05,0.0006010064796406012,-0.007389797478138914,-45.47045093800617,51.55355333051745,5.115664212848053,-1653705.4991429402,5087997.298962389,3587510.1600907003,-226.3085288749962,-4938.84401925619,6862.657855432497,0.9946294909115202,-8.936182506299141e-06,8.449525943435991e-05,0.10349960671319407
0.28500000000000003,-6.316318396162505e-06,0.0005917352894151016,-0.0073653627341856865,-45.47070669715737,51.5455197563262,5.115904582445663,-1653706.6299580873,5087972.604732519,3587544.4738415773,-226.017530011356,-4938.847928653472,6862.8424953461645,0.9946314027159531,-9.157972855221514e-06,8.598280663862865e-05,0.10348123141122771
0.29,7.653085361818586e-06,0.0005848784045338812,-0.007383186040800165,-45.470418001160915,51.54393345929639,5.121724111417768,-1653707.759318289,5087947.910483134,3587578.7885155953,-225.72655066116764,-4938.851825509379,6863.027111945182,0.9946333078609194,-9.328345852661503e-06,8.745240019574909e-05,0.10346291682871313
0.295,-1.7747286640154413e-05,0.0006099270459986014,-0.007371659934549584,-45.47203796642331,51.532408959617996,5.113829290396121,-1653708.8872236374,5087923.216214311,3587613.104112744,-225.43558863415112,-4938.855703639337,6863.2117474242505,0.9946352172776359,-9.462213074692783e-06,8.890855638022326e-05,0.10344455788877994
0.3,-1.0254703377567588e-05,0.0006227967839367448,-0.00736009769851895,-45.46289508586713,51.5352544853829,5.11259060842,-1653710.0136741989,5087898.521926076,3587647.420632916,-225.14463595345472,-4938.859590480561,6863.396321519293,0.9946371233668407,-9.665715856978272e-06,9.042042963364228e-05,0.10342622757915884
0.305,4.144999003372319e-06,0.0006199186996016939,-0.007356940791191578,-45.46291116512085,51.52436256003015,5.114579559370328,-1653711.1386700964,5087873.827618312,3587681.7380760205,-224.85372309925637,-4938.86351478325,6863.580920294454,0.9946390261240753,-9.853912689757505e-06,9.196624225743511e-05,0.10340792598278822
0.31,-1.0288362766115718e-05,0.0005977229229990374,-0.007358991438820165,-45.47201064624046,51.50956386037336,5.113880450818818,-1653712.2622114997,5087849.133290992,3587716.0564420447,-224.5628382718339,-4938.867413544919,6863.765489239987,0.9946409277271933,-1.0005558486647045e-05,9.350862089854667e-05,0.10338963219789066
0.315,-1.7230470831916813e-05,0.0005709031588302264,-0.00738610996777724,-45.47740017149589,51.50413065702064,5.115171576401936,-1653713.3842984568,5087824.438944284,3587750.375730761,-224.2719444943153,-4938.871269709623,6863.949997254876,0.9946428295263132,-1.0187357757405292e-05,9.499207673701885e-05,0.10337133328255341
0.32,-9.464197644471584e-06,0.0006105658282431332,-0.007373166791143088,-45.484844097464936,51.495208349180075,5.1195423713165065,-1653714.5049309277,5087799.7445783485,3587784.6959419814,-223.9810438270396,-4938.875104504713,6864.134491037045,0.9946447379998,-1.0379494772873376e-05,9.640704759963845e-05,0.10335296690108403
0.325,2.127706780709169e-05,0.0005831483309215157,-0.0073586563997048654,-45.47527178117495,51.47489995955565,5.103724010765152,-1653715.6241088805,5087775.050193353,3587819.0170756173,-223.69013738831634,-4938.878893646409,6864.318963304079,0.99464664277892,-1.0562565094754027e-05,9.792265109709299e-05,0.10333463266596597
0.33,-2.7321902925609986e-06,0.0006160082333643125,-0.0073660078310168065,-45.4732320003889,51.47061831820437,5.106325837781413,-1653716.7418324647,5087750.355789305,3587853.3391313404,-223.39929622549937,-4938.8827256933155,6864.5033259226675,0.9946485434774924,-1.0662107177069513e-05,9.937801973356553e-05,0.10331633447055504
0.335,-7.853967992318779e-08,0.0005938697986298644,-0.007382993632000812,-45.47784717122693,51.4648636653015,5.111827535285916,-1653717.8581019077,5087725.661366117,3587887.6621088777,-223.10848100412397,-4938.886549110569,6864.687688980387,0.9946504457268687,-1.0829840427849236e-05,0.00010090889690409656,0.10329801796477357
0.34,1.7321542326516854e-05,0.0005801674892651168,-0.00738395115657737,-45.47087782789859,51.45092593583692,5.114433036526023,-1653718.972917281,5087700.9669239065,3587921.9860082227,-222.81766834775866,-4938.890335401597,6864.872048959239,0.9946523520280472,-1.0985262181982031e-05,0.0001023854088623988,0.10327965918623892
0.34500000000000003,-6.378554531637224e-06,0.0006037083065410497,-0.0073796265449441074,-45.474923222890354,51.44711730957089,5.0996031727356925,-1653720.0862787552,5087676.272462815,3587956.310829281,-222.52692131366447,-4938.894101174028,6865.056374430914,0.9946542582393988,-1.1093878671602455e-05,0.00010383234086005469,0.10326129798720428
0.35000000000000003,-3.262995322651149e-06,0.0006088073449060721,-0.007363747407405985,-45.4831571567059,51.439712261429605,5.1084447701834454,-1653721.198186433,5087651.577982773,3587990.636571838,-222.23614978786543,-4938.897915610519,6865.240648362091,0.9946561629866427,-1.1267504678850742e-05,0.00010533169212051488,0.10324294751200855
0.355,5.028363977747329e-06,0.0006117795805513482,-0.00735980486390694,-45.48435738620165,51.433641904305524,5.104192282872058,-1653722.3086402372,5087626.883483812,3588024.963235756,-221.94537191486958,-4938.90166855919,6865.424918784876,0.9946580632940026,-1.1434695324762212e-05,0.00010684452741588121,0.1032246364862515
0.36,-3.421724545458496e-05,0.0005896674272278146,-0.007362560420380158,-45.46918613486552,51.40627266575706,5.10968534159171,-1653723.4176401668,5087602.1889660675,3588059.290820954,-221.65459995085646,-4938.90542914373,6865.609160472827,0.994659962244157,-1.1582034265078591e-05,0.00010836689336426261,0.10320633522669656
0.365,-6.11799634069166e-06,0.0005891272261188622,-0.007361354933176264,-45.476152596018295,51.39868433220224,5.101387440704938,-1653724.525186563,5087577.494429635,3588093.6193271754,-221.36395847666736,-4938.909143967354,6865.793328194218,0.9946618615710345,-1.1821258753186338e-05,0.0001098241480231322,0.10318802709112393
0.37,-1.2488735937003135e-05,0.0006190584464542997,-0.007372950037624332,-45.47508623841993,51.390857999255275,5.102676182940136,-1653725.6312796958,5087552.7998746075,3588127.948754108,-221.0732946527383,-4938.912867075794,6865.977444771196,0.9946637602488161,-1.1990470421991541e-05,0.0001112873081517821,0.10316972191030432
0.375,1.80451470458116e-05,0.0006029280328590259,-0.007372136952271063,-45.4800222582155,51.384084551759194,5.097973311267275,-1653726.7359195754,5087528.105300998,3588162.279101577,-220.78265716673064,-4938.916576643092,6866.161542889874,0.9946656615690594,-1.2183247161368502e-05,0.00011282325347668386,0.10315138786205191
0.38,7.294738624399809e-06,0.0006243828012378,-0.007388797800602751,-45.47153542037508,51.37467264902557,5.0958092471148095,-1653727.8391062422,5087503.410708841,3588196.6103694467,-220.4920095665856,-4938.920286328528,6866.345604994356,0.9946675623448797,-1.2295936468564615e-05,0.0001143269618975059,0.10313305579226568
0.385,6.276829727186521e-06,0.0006089082211325233,-0.007363446177596407,-45.4822424051696,51.3670421715347,5.1043313185941495,-1653728.9408398161,5087478.716098106,3588230.9425575566,-220.20142000227852,-4938.924007707314,6866.529638894317,0.9946694670689744,-1.2440894979441222e-05,0.00011588124886620629,0.10311468225952501
0.39,-1.3327659307903392e-05,0.0006143101770122439,-0.007352361111807148,-45.474339937514145,51.3543385439218,5.093425674964955,-1653730.0411203988,5087454.021468928,3588265.2756658173,-219.91081302065658,-4938.927663223789,6866.713665412184,0.9946713649216112,-1.2584388207827404e-05,0.0001173967939494764,0.10309637173346498
0.395,-7.566569201463204e-06,0.0005945799157297354,-0.0073433375862905275,-45.476051519378224,51.34598638265422,5.109072342566968,-1653731.139948072,5087429.32682138,3588299.6096940446,-219.62025623361538,-4938.931356159125,6866.8976254142535,0.9946732595760803,-1.2778020543342572e-05,0.0001189207193893426,0.103078088742857
0.4,-3.200475452368775e-06,0.0006116278556734876,-0.007350670353889006,-45.47616218023669,51.338113514400064,5.098260332270438,-1653732.237323044,5087404.63215556,3588333.9446421145,-219.32973270219952,-4938.934972006957,6867.081602609385,0.9946751515733614,-1.295223979206124e-05,0.00012039706677420587,0.10305982815479683
0.405,3.456412298413257e-06,0.0006013315704341183,-0.007347374352989096,-45.475564081217186,51.323360203570616,5.090120108620848,-1653733.333245413,5087379.937471581,3588368.2805099366,-219.03921478577448,-4938.938619453411,6867.265526298661,0.9946770451171061,-1.3119996525488548e-05,0.00012191693170853312,0.10304154929556303
0.41000000000000003,-7.184895925677483e-06,0.0005873881221208646,-0.007345830382304095,-45.48312064297906,51.32512125259491,5.093115649917199,-1653734.4277152538,5087355.242769348,3588402.617297194,-218.7487216194381,-4938.942273684745,6867.44937666105,0.9946789374771039,-1.3268546253311509e-05,0.00012341290785316145,0.10302327859576035
0.41500000000000004,-1.9134398286334342e-08,0.0006241598121566203,-0.007371435449395727,-45.46897738213834,51.30714341657099,5.085287229903177,-1653735.5207325602,5087330.548048885,3588436.955003748,-218.45820090267782,-4938.945911769419,6867.633244906063,0.994680829105658,-1.3439965963756137e-05,0.00012487147011506746,0.10300501170411103
0.42,1.827622774142001e-06,0.0006038405524858722,-0.00735606285261393,-45.4784965127274,51.29303492866489,5.091353944374069,-1653736.612297492,5087305.853310165,3588471.293629458,-218.16777182475002,-4938.949575933437,6867.817039084412,0.9946827269776806,-1.3603043719840882e-05,0.0001264233169852977,0.10298668110171876
0.425,-8.305855272844786e-06,0.0006124539560969459,-0.007368910685438864,-45.46456395546717,51.28903581951386,5.088982758337605,-1653737.7024102698,5087281.158553297,3588505.63317404,-217.87733925251948,-4938.953171534672,6868.0007937216205,0.9946846205588086,-1.3756292736207933e-05,0.00012792511177210414,0.10296838869142953
0.43,-3.550899419484946e-06,0.0005954402473624186,-0.007358046585696679,-45.47210006042656,51.27257210155165,5.089495544811767,-1653738.7910710652,5087256.46377836,3588539.9736373895,-217.5869789434305,-4938.956803208679,6868.1845461087105,0.9946865171048471,-1.3936962164424772e-05,0.00012944571655391818,0.10295006430010804
0.435,-1.0862453169349956e-06,0.0006159179081361104,-0.0073482274315431065,-45.47059623026784,51.25698733502751,5.086904271183473,-1653739.8782800655,5087231.768985384,3588574.315019344,-217.29662116607525,-4938.960386922118,6868.368235535721,0.9946884105210598,-1.4101424939896909e-05,0.00013092523721092112,0.1029317668886519
0.44,-2.292258948671002e-06,0.0006069178851443651,-0.00733657144054053,-45.46250467030452,51.24555188057645,5.08941056545392,-1653740.9640373704,5087207.074174528,3588608.657319594,-217.00630079659211,-4938.963955519775,6868.551864536305,0.9946903010654842,-1.4265025093966108e-05,0.00013245631462715718,0.10291349385814447
0.445,-3.1010128951707363e-06,0.0006153245738439702,-0.007345946526097286,-45.46997430559845,51.2462047768145,5.083632816889248,-1653742.0483432382,5087182.379345859,3588643.0005379296,-216.71604631478004,-4938.96751191908,6868.735469787513,0.9946921882764709,-1.4429304849051612e-05,0.00013396470153749818,0.10289524977869391
0.45,-1.8172720712238077e-05,0.0006127954704475139,-0.0073447783860042856,-45.46603100754737,51.224526869757646,5.083164753773132,-1653743.1311977424,5087157.684499369,3588677.344674264,-216.42575542097836,-4938.971084386988,6868.91906395735,0.9946940775588701,-1.4597761412983596e-05,0.00013549378519080944,0.10287698235100087
0.455,-1.1495129389398648e-05,0.0005933384114444386,-0.0073452115023359245,-45.46478232335396,51.215475163495725,5.086047680816194,-1653744.2126009476,5087132.989635097,3588711.6897283765,-216.13552665172148,-4938.974624420855,6869.102580978275,0.9946959662033684,-1.480304645621368e-05,0.00013701270330076932,0.1028587177984263
0.46,-2.774075687998105e-06,0.0005933592312058219,-0.007351147622839283,-45.46020441383066,51.218643149918194,5.08647185086024,-1653745.2925530875,5087108.294753181,3588746.035700027,-215.84532926036317,-4938.978142152898,6869.286079152199,0.9946978546284975,-1.4986722889541218e-05,0.0001384849538241357,0.10284045213232079
0.465,1.2138923146869065e-05,0.0006143957993053459,-0.007334776554074018,-45.46852706663921,51.189347836523616,5.085451701745133,-1653746.3710542924,5087083.59985362,3588780.3825892345,-215.55515277090328,-4938.981682076698,6869.469603996807,0.9946997442422562,-1.5148719692204997e-05,0.00013995949804424877,0.10282217166664709
0.47000000000000003,1.1210005452963433e-05,0.0006058082302411093,-0.007357509066047842,-45.4640727394918,51.17530480092338,5.087263788410335,-1653747.448104666,5087058.904936542,3588814.730395767,-215.2649966098567,-4938.985149101146,6869.653008834698,0.99470162930347,-1.527903343523858e-05,0.00014149018897646246,0.10280393187081843
0.47500000000000003,-4.822748977580488e-06,0.0005970742895256331,-0.007335268718019109,-45.45710951663938,51.17030399096929,5.080185042212695,-1653748.5237043921,5087034.210002186,3588849.0791192246,-214.9748938790645,-4938.988593176263,6869.8363742991205,0.9947035198723498,-1.5409458114349e-05,0.00014299928507896962,0.10278563551056596
0.48,-5.410656707640527e-06,0.0006167547848743426,-0.00734938678513486,-45.46070194176404,51.15545733946015,5.076070931399498,-1653749.597853697,5087009.5150505155,3588883.4287594464,-214.6848279821418,-4938.992075217563,6870.01971436085,0.9947054043909911,-1.5577500121411624e-05,0.00014448254294363325,0.10276739442785972
0.485,-3.659037848677322e-06,0.0006104067815171125,-0.007348777590471908,-45.45254191215861,51.14507776870695,5.078087934712617,-1653750.6705527,5086984.820081479,3588917.779316203,-214.3947733269801,-4938.995539304992,6870.2029883782025,0.99470729219225,-1.5752065493266956e-05,0.00014601458990282087,0.10274911820144259
0.49,-1.8686588364447346e-05,0.0006099354043937668,-0.007348685289813268,-45.45221155796581,51.130844889251584,5.078770508434879,-1653751.7418015893,5086960.125095141,3588952.130789278,-214.10478229419147,-4938.998995662212,6870.386241598036,0.994709179501299,-1.592064413785748e-05,0.00014753130076652703,0.1027308434546365
0.495,2.083084681699351e-05,0.0005896240934949766,-0.007348799507547469,-45.4547494171109,51.116433002609284,5.073564900074214,-1653752.8116006076,5086935.430091591,3588986.483178502,-213.8148251113518,-4939.002424629466,6870.569448019635,0.9947110664481644,-1.6126471786679854e-05,0.00014904297989353613,0.10271256890800928
0.5,2.5343308461275316e-05,0.0005881932835264978,-0.007330447142377346,-45.44778204326647,51.11265619991654,5.0756365776192585,-1653753.8799498747,5086910.7350709215,3589020.836483592,-213.52488169953526,-4939.005843120806,6870.752588014087,0.9947129530955408,-1.6228812830051596e-05,0.00015051429659420563,0.102694294028543
0.505,-1.8898324669625214e-05,0.0006026619842754549,-0.007321914834203899,-45.45379914085858,51.0938462316134,5.071880154003139,-1653754.9468495406,5086886.040033148,3589055.190704395,-213.23498463021022,-4939.009266302998,6870.935733137141,0.9947148346948627,-1.6319558112058895e-05,0.00015198321438558774,0.10267606475097624
0.51,8.256018006883011e-07,0.0006073971646314667,-0.007315577004156743,-45.438602293632215,51.0854368901058,5.0733552350813405,-1653756.0122997412,5086861.344978342,3589089.5458407155,-212.94509558872153,-4939.012656029055,6871.118795085853,0.994716713760832,-1.6524033641713384e-05,0.00015347675665998198,0.1026578566729918
0.515,-1.6126119936885552e-05,0.0005807449593693677,-0.0073403352582499595,-45.44321244768414,51.069144006937144,5.07424426155317,-1653757.0763007235,5086836.649906554,3589123.901892325,-212.65529736270298,-4939.016059126833,6871.301848606638,0.9947185908639457,-1.6680672694378736e-05,0.0001549871365921078,0.10263966431350519
0.52,7.872253927845016e-06,0.0006184124578615738,-0.0073084055158539616,-45.44239988760825,51.057945979264474,5.067364174294985,-1653758.138852754,5086811.9548178585,3589158.2588590547,-212.36551482671265,-4939.019419099089,6871.484843325063,0.9947204739935837,-1.6872637882809877e-05,0.00015642688703169103,0.10262141035828472
0.525,8.411915978518262e-06,0.0005610640672949304,-0.007315317324937246,-45.43831640238313,51.03979899211508,5.0728662497102395,-1653759.1999559237,5086787.2597123375,3589192.6167406198,-212.07575304274212,-4939.0227894416985,6871.667782776007,0.9947223485820558,-1.701457512388482e-05,0.00015796646721263249,0.10260323576037265
0.53,3.664957741980936e-06,0.0006007682622204165,-0.007329454348469428,-45.43409590313097,51.04345929101296,5.057655989370463,-1653760.259610444,5086762.564590083,3589226.9755367674,-211.78605515772733,-4939.026112085403,6871.850676151289,0.9947242246315836,-1.7140462727990343e-05,0.00015936357115974866,0.10258504394185143
0.535,1.0723644575759655e-05,0.0006014129902871784,-0.007322744467856638,-45.43555598988467,51.019911489719235,5.059093340632513,-1653761.317816471,5086737.869451006,3589261.335247343,-211.49635559276902,-4939.029518895683,6872.033554110547,0.9947261039552661,-1.7288343385965405e-05,0.00016085819384131187,0.10256681693282683
0.54,-1.7686328565854604e-05,0.0006145303850303316,-0.00736244768684461,-45.42912048530331,51.01693242632485,5.052037037529598,-1653762.3745741092,5086713.174295033,3589295.695872098,-211.20669969610879,-4939.0328703084615,6872.21634803307,0.9947279812225406,-1.741883300887216e-05,0.00016235623004575567,0.10254860657253176
0.545,-1.6877226561632212e-05,0.0006156376470202653,-0.007339153729689732,-45.43227514172572,50.99997586884224,5.069995292738505,-1653763.4298835448,5086688.479122199,3589330.057410779,-210.9170745745916,-4939.036263081325,6872.399124302292,0.9947298683245418,-1.7623352155481886e-05,0.000163879601557238,0.10253029745364739
0.55,-1.4101739071344061e-05,0.0005805558821897565,-0.007338136011727354,-45.42201781570273,50.98574839296633,5.065333211673077,-1653764.4837449682,5086663.783932675,3589364.41986331,-210.62749476049154,-4939.039546973809,6872.581888077975,0.994731749116995,-1.7826133477585516e-05,0.00016540593499938787,0.10251204622750147
0.555,1.3137274526494412e-05,0.0006043059755431464,-0.007326372722548752,-45.42374635568388,50.97442819169863,5.0618474645783955,-1653765.536158671,5086639.088726695,3589398.7832295266,-210.3379863369182,-4939.042844941347,6872.764598483112,0.9947336293262056,-1.8013021450191363e-05,0.00016684573736987026,0.10249379749792728
0.56,3.659738245288979e-06,0.0006110773574418197,-0.007319143614976246,-45.410887749645354,50.95638044908438,5.053629326335591,-1653766.5871248664,5086614.393504246,3589433.147509174,-210.04849183538732,-4939.046134376701,6872.9472604585035,0.9947355061761488,-1.8138251196033607e-05,0.00016835158232991372,0.10247557797460588
0.5650000000000001,-1.05623780754873e-05,0.000601685937083693,-0.0073144373883255705,-45.42151388165959,50.94603276544045,5.057291247493666,-1653767.6366438027,5086589.698265289,3589467.5127019393,-209.75908274044022,-4939.049448468346,6873.129845802,0.9947373808351203,-1.8288781751011556e-05,0.00016987183885593997,0.10245737639801077
0.5700000000000001,-3.925921915230281e-06,0.0006013639177240862,-0.007312589535033274,-45.42402449452338,50.93404997281905,5.058765183707645,-1653768.6847156475,5086565.003009894,3589501.8788075517,-209.46965511510768,-4939.052709717368,6873.312399145614,0.9947392539568387,-1.8472272927326595e-05,0.00017136509764586704,0.10243918649701644
0.5750000000000001,1.0789718567719839e-06,0.0006083587435619244,-0.007321200759128254,-45.415802916091096,50.91278467715319,5.057629644347362,-1653769.731340399,5086540.30773827,3589536.245825836,-209.1802454533657,-4939.0559397092775,6873.494914565977,0.9947411262709819,-1.8639176978563825e-05,0.00017285925523315534,0.10242100115404755
0.58,-6.442201354461271e-06,0.0005592326469874926,-0.007296632440729879,-45.409696236750335,50.90181378793045,5.0613906115206495,-1653770.7765183009,5086515.612450547,3589570.6137565128,-208.8909153216663,-4939.05914954041,6873.677356151883,0.9947430004521399,-1.8795429353391567e-05,0.00017437208897884638,0.10240279435923808
0.585,1.589097759856356e-05,0.0006118514107960365,-0.007316620120202073,-45.40910392962739,50.88861375750469,5.0548550428307815,-1653771.8202496963,5086490.917146825,3589604.9825993474,-208.60164285140678,-4939.062339115897,6873.8597776018605,0.9947448680304538,-1.895779847397045e-05,0.00017576082874572505,0.10238464863351406
0.59,-1.2584464247178025e-05,0.000620714348553467,-0.007309382245078106,-45.4020421346701,50.88040244737985,5.056621314506027,-1653772.8625347887,5086466.221827146,3589639.352354132,-208.31239413937175,-4939.06553260381,6874.0421363594105,0.9947467403687328,-1.9078105217053683e-05,0.00017728613955611663,0.10236645315449659
0.595,2.2027827630401706e-05,0.0005905351625688983,-0.007308387309188969,-45.39860427310024,50.85740758993694,5.050358660779383,-1653773.9033737737,5086441.52649151,3589673.7230206765,-208.0231997999221,-4939.068721949387,6874.224481409146,0.9947486105145795,-1.927149154691503e-05,0.00017882620427319345,0.10234827565284976
0.6,9.999728216737068e-06,0.0005937929390311832,-0.0073387159709925025,-45.39993159201623,50.843605467524874,5.048331646095918,-1653774.9427669235,5086416.831139961,3589708.094598698,-207.73406010942603,-4939.0718975261425,6874.40672722549,0.9947504800866068,-1.9371079133259513e-05,0.0001803000734907559,0.1023301005770543
0.605,6.536889028000252e-06,0.000605827033810068,-0.007318955537776516,-45.398757114085875,50.83795156170897,5.040245916125899,-1653775.9807144299,5086392.135772582,3589742.4670878137,-207.44494247280835,-4939.075053868895,6874.588918940846,0.994752357079782,-1.9501426199366047e-05,0.00018177896577392774,0.1023118500483683
0.61,6.196448502550859e-06,0.0005915128843874799,-0.007303982520086369,-45.38947176932947,50.82207453011198,5.040756689855908,-1653777.0172163749,5086367.440389351,3589776.8404877977,-207.15583556075816,-4939.078238691292,6874.771074818999,0.9947542286768281,-1.9643454023668723e-05,0.00018328690059571493,0.10229364862793698
0.615,7.103049359046233e-06,0.0005911879056195135,-0.007301393464301199,-45.39208214951982,50.8070795571779,5.035635793614384,-1653778.052272977,5086342.744990226,3589811.214798446,-206.86680526049676,-4939.081411351417,6874.953184224672,0.9947560961167182,-1.97826610006689e-05,0.00018475915137723155,0.10227548441013963
0.62,-8.063162028624074e-06,0.0006074282830757726,-0.007291588409631393,-45.38287987289154,50.7935259684787,5.049118718959448,-1653779.0858844637,5086318.049575268,3589845.5900194687,-206.577789441698,-4939.084571609683,6875.13522493804,0.9947579625610767,-1.9919529064929555e-05,0.0001862308258458869,0.10225732659632443
0.625,-1.3857488423397677e-05,0.0005829711526420192,-0.007308713374741481,-45.39092992908352,50.772533305794504,5.040476042138996,-1653780.118051093,5086293.354144655,3589879.9661506927,-206.28886226112647,-4939.087673710437,6875.3172647769225,0.99475982615729,-2.0098261075302364e-05,0.00018773901171183224,0.10223919313864702
0.63,-1.1877475596878035e-05,0.0006082335228415293,-0.007296364716224467,-45.36891082447311,50.761290822107064,5.046373746041766,-1653781.1487730774,5086268.6586985905,3589914.3431918477,-205.9999315354951,-4939.0907523651695,6875.499197138234,0.9947616938082621,-2.0285159831066818e-05,0.00018918489320919753,0.10222101706256968
0.635,-8.312570118118535e-06,0.0006111582076163934,-0.007297706332322601,-45.37788821443303,50.74830839399428,5.0402605810801395,-1653782.1780507385,5086243.963237123,3589948.7211426594,-205.71113293106166,-4939.0938344211245,6875.681127570243,0.9947635579578991,-2.0473584500263242e-05,0.0001906941063620487,0.10220287165990938
0.64,-8.186950415859285e-06,0.0005920894421337616,-0.007300671699321599,-45.364668911605406,50.73058335390477,5.035147562797406,-1653783.2058843593,5086219.267760288,3589983.1000029515,-205.42231534091238,-4939.0968994967025,6875.862989328706,0.9947654221157555,-2.0653891485004192e-05,0.00019221150366585403,0.10218472288467298
0.645,5.377601591321573e-06,0.0005872570744601116,-0.007282889301333238,-45.36415513004705,50.724215203794074,5.037076246245652,-1653784.2322741179,5086194.572268094,3590017.4797723866,-205.1335880806,-4939.099978398993,6876.0447846507295,0.9947672867068228,-2.0829016141131563e-05,0.00019368151047178007,0.10216656670149186
0.65,-2.2896252354148184e-05,0.0005988443741644238,-0.0072956877962612725,-45.36299040126082,50.699751713354054,5.027450556883889,-1653785.2572202948,5086169.87676054,3590051.86045077,-204.84488266873032,-4939.103043281539,6876.226568614675,0.9947691464262833,-2.0969163982463152e-05,0.00019514296504496935,0.10214845470119051
0.655,8.362906642192619e-06,0.0006109955768940572,-0.0072750984262510855,-45.35547589172933,50.68863385299985,5.038534176009939,-1653786.2807230514,5086145.181237682,3590086.242037781,-204.55621998510105,-4939.106099562006,6876.408235999628,0.9947710090744373,-2.1182592016408215e-05,0.00019662601527635734,0.1021303108510588
0.66,-1.0993742517782372e-06,0.0005978073605444117,-0.007294944682744017,-45.355946540435546,50.6715267821503,5.01985821186745,-1653787.3027826785,5086120.48569966,3590120.6245331317,-204.26763085128582,-4939.109109248924,6876.589904225182,0.9947728661290024,-2.1321373174710725e-05,0.00019814726696197154,0.10211221815507503
0.665,-2.4985405346538556e-05,0.00059903307278183,-0.007303164841785091,-45.34798264337345,50.65135684492695,5.018225680558761,-1653788.3233993861,5086095.790146489,3590155.00793654,-203.97905217241035,-4939.1121594512415,6876.771459050515,0.9947747279237238,-2.1480329512736105e-05,0.0001996333037878664,0.10209407607408431
0.67,2.098632364577716e-06,0.0005790219080302559,-0.007283585925686145,-45.35236619470324,50.64561123110458,5.028646424363968,-1653789.3425733894,5086071.094578107,3590189.3922475446,-203.69054914789416,-4939.115193347584,6876.952942801975,0.9947765914811597,-2.1699005841204263e-05,0.0002011162918186161,0.10207591352770906
0.675,1.548180235787664e-05,0.0005879607907037465,-0.007301536191750222,-45.3410587913055,50.6305627890891,5.023089284261688,-1653790.3603049016,5086046.398994695,3590223.777465995,-203.40205577931516,-4939.118171121569,6877.134437340958,0.9947784497209049,-2.184520925671625e-05,0.00020255642581824747,0.10205779962626267
0.68,9.140754906461109e-06,0.000591584839528708,-0.007286288977129522,-45.33487974944328,50.616175354319935,5.0242957249705125,-1653791.3765941379,5086021.703396351,3590258.163591772,-203.11363870928844,-4939.121166649849,6877.315873400475,0.9947803122039993,-2.1960419238774975e-05,0.00020402220393162502,0.10203964104206668
0.685,-5.533310404717161e-06,0.0006119732481754831,-0.007283723412693763,-45.33309237217852,50.593433410451595,5.015769615822248,-1653792.3914414407,5085997.007783074,3590292.550624626,-202.82528245811517,-4939.124144245318,6877.497268296372,0.9947821704624109,-2.209231580106819e-05,0.00020549537804934726,0.1020215203458275
0.6900000000000001,1.0526827826780284e-05,0.0005888843247959827,-0.007273589963177126,-45.32818299313455,50.57592130778201,5.022094366773165,-1653793.404847072,5085972.312154927,3590326.9385641897,-202.5369699812563,-4939.127114098249,6877.678557191478,0.9947840277229631,-2.2265904925414402e-05,0.00020701551462752103,0.10200340600237408
0.6950000000000001,1.277067747232611e-05,0.0005876214304551166,-0.007285343522532726,-45.32494096586056,50.56178460143082,5.018648068021657,-1653794.4168113088,5085947.616512053,3590361.3274100963,-202.24872483957,-4939.130036057448,6877.85980546315,0.9947858820806093,-2.2393660003316045e-05,0.00020848232594227674,0.10198531681937335
0.7000000000000001,-9.534216432409028e-06,0.00055395710828532,-0.007253836622501903,-45.32501333223332,50.545415438416946,5.01449279513326,-1653795.4273344232,5085922.92085458,3590395.7171621053,-201.96052090029517,-4939.1329529293635,6878.040998068812,0.9947877391041483,-2.251551883323177e-05,0.0002099465678551578,0.1019671983705892
0.705,-8.357930483421702e-06,0.0006203678624859306,-0.007277456036712755,-45.31385295046431,50.528279064507,5.016614326478027,-1653796.4364165918,5085898.225182558,3590430.1078199036,-201.67234645086197,-4939.135855595451,6878.222121192842,0.9947895877818238,-2.268425106464701e-05,0.0002113214034155554,0.1019491582582145
0.71,-5.390222804833902e-06,0.0006199198135138282,-0.00728380266157556,-45.301318087420626,50.51758298125014,5.013802779874418,-1653797.444058111,5085873.529496068,3590464.4993832028,-201.38426121272698,-4939.138740647646,6878.403198631762,0.9947914421140616,-2.2866996675442302e-05,0.0002128616991866861,0.10193105936672679
0.715,2.645623419155458e-06,0.0005822248497261279,-0.007282560766461756,-45.30567083624266,50.494638995376484,5.016344751626224,-1653798.4502593973,5085848.833795103,3590498.8918518093,-201.09625339698906,-4939.141645067313,6878.5842439524595,0.9947932977320398,-2.304225085521771e-05,0.00021440163648972518,0.10191294465575061
0.72,4.562373525736261e-06,0.000588260998604244,-0.007262515936924484,-45.304598950199875,50.483388447862,5.01306962754778,-1653799.4550207218,5085824.138079778,3590533.28522544,-200.80827637785086,-4939.144485014442,6878.76520824022,0.9947951527222207,-2.3187915334833198e-05,0.00021584987444128772,0.10189483299719346
0.725,-8.118639331357677e-06,0.0006135830574492714,-0.007287856947930042,-45.29423892271824,50.46670612020282,5.01078853926608,-1653800.4583422272,5085799.442350263,3590567.6795037785,-200.5203258126026,-4939.147321362763,6878.946127223909,0.9947970022721229,-2.3330339686718825e-05,0.00021731361357947294,0.10187677115459953
0.73,-7.878169573460913e-06,0.0006013422460128799,-0.007276297128968961,-45.288832658008985,50.456728965337554,5.012015193047887,-1653801.460224178,5085774.746606567,3590602.07468657,-200.23245441219592,-4939.150156797004,6879.126989408569,0.9947988579303509,-2.3510764706123467e-05,0.00021883709718620328,0.1018586462605824
0.735,-1.2772165169368074e-05,0.0005927514087486495,-0.007283694982629488,-45.281028695233054,50.438458344020475,5.015003348198272,-1653802.4606668947,5085750.050848719,3590636.470773613,-199.94463236430235,-4939.152982693159,6879.307827698209,0.9948007103196207,-2.3687468264584428e-05,0.0002203301997710694,0.10184055008239598
0.74,1.0031030350541647e-05,0.0005971010958487587,-0.0072552456787886984,-45.27542759405321,50.4203659502032,5.006878014168451,-1653803.4596706948,5085725.355076817,3590670.8677647207,-199.65688766546387,-4939.155778028592,6879.488615341178,0.9948025642651018,-2.387416002682397e-05,0.0002218006903988323,0.10182243547497825
0.745,5.028942770552261e-06,0.0006035742981783413,-0.0072506794554673005,-45.27626688706822,50.41191616696017,5.011344353254524,-1653804.4572359037,5085700.659290915,3590705.265659559,-199.3691958597316,-4939.158582506798,6879.6693201326525,0.99480441063682,-2.4005231551835355e-05,0.00022328780504281818,0.10180439157440191
0.75,2.7683147700795553e-06,0.000603226481787695,-0.007267729192954441,-45.27164006504308,50.37850111761977,5.001346862467926,-1653805.4533627103,5085675.963491071,3590739.664457887,-199.0815267796729,-4939.161355305265,6879.850011007198,0.9948062555131534,-2.4150388267976836e-05,0.0002247897457262841,0.10178635899877611
0.755,-4.286316131208726e-06,0.0005915762014695641,-0.007260161084502823,-45.25276575282168,50.365715560450525,4.99679693141782,-1653806.448051356,5085651.267677414,3590774.0641592913,-198.79393152382264,-4939.164107450708,6880.030550754886,0.9948081043982183,-2.4301088267382125e-05,0.00022629024502827784,0.10176828398772285
0.76,1.613453156607831e-05,0.0005847824415392438,-0.00725640373891847,-45.25240080858771,50.341817295643246,5.001651213683083,-1653807.441302294,5085626.571849911,3590808.464763294,-198.50644361116792,-4939.166894007432,6880.211050304672,0.9948099510336742,-2.4466364914655614e-05,0.00022775997538751938,0.10175022776961916
0.765,-1.7153457473649576e-05,0.0005951034595272041,-0.007236367833839557,-45.24800806579068,50.33671847832468,4.994944132955252,-1653808.4331159336,5085601.876008639,3590842.866269608,-198.21901224705758,-4939.169614448608,6880.391475307612,0.9948117963887609,-2.4579124091599727e-05,0.00022921800421590036,0.10173218085119229
0.77,-1.743545322178052e-05,0.0005959478664487171,-0.007244723879023586,-45.24860067513907,50.31328362056909,4.998590039149771,-1653809.4234924808,5085577.180153688,3590877.2686779792,-197.93160664202537,-4939.172365664303,6880.5718731241395,0.9948136363114951,-2.4777284938539113e-05,0.00023069323672652824,0.10171418374748473
0.775,-2.3092038250114435e-06,0.0005794329473271317,-0.007253032335773751,-45.239674145891115,50.29802649626281,4.997510433593367,-1653810.4124321246,5085552.484285139,3590911.6719881473,-197.6442508742148,-4939.175054602834,6880.752194057946,0.9948154780303785,-2.497636665004937e-05,0.00023217049700482547,0.10169616582856496
0.78,9.67132688629394e-06,0.000586418672662446,-0.007280248347648271,-45.229233909490844,50.28606611438407,4.997473484327098,-1653811.3999351687,5085527.788403156,3590946.0761997974,-197.3569667519488,-4939.177738176061,6880.932466071713,0.9948173215432774,-2.5133634848196217e-05,0.00023361052914862006,0.10167812720482523
0.785,4.341674086504382e-06,0.0005706272379716593,-0.007241715165109397,-45.2337565465604,50.261551856250534,4.989275216185501,-1653812.3860019764,5085503.0925077535,3590980.4813127294,-197.0697564371762,-4939.180422939833,6881.112706735257,0.9948191716406027,-2.526289857288439e-05,0.00023507097870095143,0.10166002085247701
0.79,-1.9812950593350867e-05,0.0006069104021963654,-0.007253334578963569,-45.21726010787989,50.25486129635518,5.002152186634576,-1653813.3706327805,5085478.396598992,3591014.8873265707,-196.78256512218837,-4939.18308158124,6881.292829776701,0.9948210116237729,-2.540138135212209e-05,0.00023649080202250321,0.10164201030441895
0.795,-6.9498807198996e-06,0.0005711547277481215,-0.007248516484492605,-45.20755903037609,50.22194592867897,4.982205230939026,-1653814.3538278977,5085453.700677001,3591049.294241105,-196.49548178246673,-4939.185715006553,6881.472984020829,0.9948228542077591,-2.5609164547448853e-05,0.00023799472485183947,0.10162397083665634
0.8,-2.700691909008572e-06,0.0006112516140899186,-0.007250495225354643,-45.21378877428636,50.21110015875229,4.986619514961397,-1653815.3355878054,5085429.0047417665,3591083.702055979,-196.208481267402,-4939.188378538089,6881.652965548589,0.9948246952606992,-2.5775869593782375e-05,0.00023941298949627007,0.10160594331279142
0.805,-2.206491139456625e-07,0.0005891740341525046,-0.007228504736291462,-45.20867916064536,50.18734402333819,4.983175152501784,-1653816.3159127173,5085404.308793335,3591118.11077069,-195.92148352223813,-4939.190994045871,6881.832918721961,0.9948265364635965,-2.59421930260443e-05,0.00024093205672293488,0.10158791082895188
0.81,4.147602534386256e-06,0.0005889548568046971,-0.007249523036717557,-45.19518162100564,50.17655208636986,4.982725283437015,-1653817.2948028077,5085379.612831885,3591152.5203849333,-195.63455263372373,-4939.193586151545,6882.012778671252,0.9948283717669217,-2.6096728135112492e-05,0.00024239684674630838,0.10156993300335006
0.8150000000000001,1.5851393865413298e-05,0.000589447923709035,-0.007248756436398096,-45.19808910018081,50.162476891335004,4.9836825558903755,-1653818.2722584556,5085354.916857445,3591186.9308984135,-195.347706579297,-4939.19618997231,6882.192613374477,0.9948302120797478,-2.624035616623027e-05,0.00024386219941646242,0.10155190286762482
0.8200000000000001,-2.591334182294545e-06,0.0005664343973894524,-0.007250349597866202,-45.182364076586786,50.13614946602033,4.977496163769091,-1653819.2482799212,5085330.220870073,3591221.3423109464,-195.06087958519132,-4939.198758780206,6882.372399741114,0.9948320518695177,-2.6355000688039545e-05,0.0002453317497066062,0.10153387459775096
0.8250000000000001,4.621064291139419e-07,0.0005766831211914854,-0.007229776547147099,-45.17584665810411,50.13885844236581,4.98256413570295,-1653820.2228675405,5085305.524869848,3591255.754622155,-194.774168134365,-4939.201330871869,6882.55208363767,0.994833891747731,-2.650967308949189e-05,0.00024673938192257077,0.10151584234482115
0.8300000000000001,5.393488108451205e-06,0.0006038990566320557,-0.0072154864661899375,-45.166849915262624,50.1086193636083,4.973022094011948,-1653821.196021693,5085280.828856748,3591290.1678318805,-194.48749291750005,-4939.203909586443,6882.731806688726,0.994835726070643,-2.665933964581028e-05,0.00024817327979660946,0.10149786122278334
0.835,1.6541881425958998e-05,0.0006129097934700351,-0.007234150807995734,-45.16453514478655,50.086389404129356,4.972384983747197,-1653822.1677426898,5085256.132830768,3591324.581939888,-194.20090581431546,-4939.206482033262,6882.911396332549,0.994837556424442,-2.680363843874765e-05,0.00024967611831556996,0.10147991560326614
0.84,-3.261646045954037e-06,0.000587478594725355,-0.007241468396341709,-45.160984711420035,50.063537528340674,4.9749780925502955,-1653823.138030889,5085231.436792019,3591358.99694564,-193.91437382781712,-4939.209017714586,6883.090904402852,0.9948393911816469,-2.6922507794101643e-05,0.0002512041943953926,0.10146192352287445
0.845,-8.690420469416583e-06,0.0006059488028259485,-0.007207439166975923,-45.15241707673851,50.04141349401662,4.965860667983125,-1653824.106886593,5085206.740740712,3591393.4128487473,-193.6279077794028,-4939.211505005645,6883.270338471283,0.9948412274816673,-2.7084184313281675e-05,0.0002526639967442203,0.10144391322361997
0.85,-6.929691596022134e-06,0.0005950232726381554,-0.00721951124522356,-45.14324023779928,50.03254247220183,4.965562631515445,-1653825.074310147,5085182.044676945,3591427.8296487755,-193.34151379771387,-4939.21400207031,6883.449672913132,0.9948430548127695,-2.7264025475650166e-05,0.00025416836183514137,0.10142598752742725
0.855,2.640076104130288e-05,0.0005832883440696614,-0.0072132925097572135,-45.12860251991007,50.01394208103703,4.963751333677243,-1653826.0403018864,5085157.348600675,3591462.2473454247,-193.05518197259897,-4939.216505733687,6883.6289866717725,0.9948448848862105,-2.743672484602326e-05,0.00025564599950958917,0.10140803177308864
0.86,-1.2245638219552086e-06,0.0005752340890816328,-0.007205549389601632,-45.131368704094214,49.99185166743182,4.961402469046124,-1653827.0048622224,5085132.6525118835,3591496.665938493,-192.76895241245415,-4939.21901087564,6883.808240578404,0.9948467130669026,-2.7523548617104935e-05,0.0002571029013816784,0.10139009143171948
0.865,7.537093598353259e-06,0.0005819906071092214,-0.007231941449691736,-45.12704991912389,49.976961609161904,4.962032174384647,-1653827.9679914853,5085107.956410667,3591531.085427605,-192.48275271410907,-4939.221475867654,6883.987404431343,0.9948485389629185,-2.767703325719108e-05,0.00025853276949421906,0.10137217033355576
0.87,-2.5398192163806013e-05,0.000593582741848843,-0.00723084482008869,-45.11640881853122,49.94930745592995,4.958155663087169,-1653828.9296898805,5085083.260297176,3591565.5058124205,-192.19660543358194,-4939.2239200407685,6884.166521675345,0.9948503712176302,-2.7810455948266897e-05,0.00025998166044667327,0.10135418355577748
0.875,2.836903995856056e-06,0.0005787193620046472,-0.007215495001755922,-45.11651348544153,49.93704385616841,4.962461695886446,-1653829.8899577847,5085058.5641715145,3591599.927092558,-191.91055619193565,-4939.226344868873,6884.345533199422,0.9948522028573487,-2.802872939897545e-05,0.0002614510371662141,0.10133619949271071
0.88,7.765009090169953e-06,0.0005765565695124735,-0.007228461935202751,-45.09986836411637,49.91620640206327,4.950877323832836,-1653830.8487955239,5085033.868033824,3591634.3492676793,-191.6245395228174,-4939.228731364975,6884.524515387724,0.994854030293481,-2.8173002942330322e-05,0.0002628906008034216,0.10131825355596924
0.885,-1.0728644113608326e-05,0.0005605108440475714,-0.007230649805136805,-45.096285111429594,49.9055144256451,4.948303323929073,-1653831.8062034366,5085009.171884104,3591668.772337475,-191.3386255848889,-4939.231156824119,6884.70340295466,0.9948558606894707,-2.830448030972082e-05,0.00026432603255152485,0.10130027533238704
0.89,-4.0010557609259737e-07,0.0005884198105405803,-0.007208332960720151,-45.09299194772786,49.88462416035706,4.953284166734791,-1653832.7621818734,5084984.475722256,3591703.1963016107,-191.0527490823509,-4939.233582208253,6884.882251404405,0.9948576913218389,-2.8477891820754905e-05,0.00026571687256748543,0.10128229164732701
0.895,-1.1156806924626477e-05,0.0005685494943793647,-0.007203901187131073,-45.07379751027989,49.86536592737458,4.954242431298286,-1653833.716731088,5084959.779548416,3591737.62115984,-190.7669367993417,-4939.235953793124,6885.06104019412,0.9948595159595139,-2.8632666642748124e-05,0.00026717974295523866,0.1012643634254271
0.9,-1.3642166595912273e-06,0.0005810801271752959,-0.007204461380782108,-45.08210010561737,49.843487172048526,4.952531404514159,-1653834.6698515597,5084935.083362722,3591772.046911885,-190.48125190701737,-4939.2383237328295,6885.239777954993,0.9948613391627754,-2.880916162463519e-05,0.00026859046996387454,0.10124644620153748
0.905,-3.672666401149546e-06,0.0005845740029528799,-0.007222902569859273,-45.0709520673596,49.81447449192591,4.947631049161453,-1653835.6215436207,5084910.387165313,3591806.4735573893,-190.19557241893747,-4939.240640152893,6885.418423631002,0.9948631621753575,-2.8964473004711546e-05,0.0002700348411122009,0.10122852754383124
0.91,1.0946895308006744e-06,0.0005751605629512171,-0.007209232426628289,-45.05509185017027,49.79112145352281,4.9460692343637715,-1653836.5718075375,5084885.690956364,3591840.9010958374,-189.90999431275557,-4939.242939135954,6885.596955563721,0.9948649895266752,-2.9126422503492775e-05,0.0002714873164551203,0.1012105629881434
0.915,1.1822746594539758e-05,0.00060219723501088,-0.007202756274664903,-45.04765455591951,49.78505724666763,4.935068704056762,-1653837.5206438552,5084860.99473594,3591875.3295267513,-189.62453279484333,-4939.245230182151,6885.7754100112725,0.9948668130999542,-2.9274123676876674e-05,0.0002729175862167448,0.1011926323966211
0.92,7.6209109601621485e-06,0.0005742724715581702,-0.007200080960364227,-45.0497689903995,49.76104860971967,4.935791031044482,-1653838.4680529542,5084836.2985039335,3591909.7588498355,-189.33910678771346,-4939.24757285202,6885.953823734344,0.994868634692194,-2.9401977732245625e-05,0.00027441781508341987,0.10117471787001178
0.925,-1.2208283828302016e-05,0.0005688881520287238,-0.007189068081689959,-45.02737547935575,49.74699976138384,4.9412571057381784,-1653839.4140350234,5084811.60226035,3591944.1890647667,-189.05372088721143,-4939.2498601530315,6886.132148712957,0.9948704553019793,-2.953321742867907e-05,0.00027584752758014436,0.10115680996929081
0.93,-1.0135069277601554e-05,0.0006093804221461497,-0.007184458996364655,-45.03184057536268,49.720622429127964,4.938986554521081,-1653840.3585905083,5084786.906005334,3591978.620171286,-188.7684730750883,-4939.252146518608,6886.310459037816,0.9948722728050596,-2.9712406569454474e-05,0.00027725883440390383,0.10113892944067901
0.935,7.351518469387244e-07,0.0005917702599762325,-0.007194068647237537,-45.02621855011385,49.70554701496416,4.926690346967828,-1653841.301719829,5084762.20973902,3592013.052169085,-188.48325521707363,-4939.25437908798,6886.488660616981,0.9948740887915161,-2.989667440874891e-05,0.00027877137727867865,0.10112106033838199
0.9400000000000001,5.669749494696193e-06,0.000575568753587143,-0.007175856976867499,-45.01165878034843,49.67050844572301,4.938698472709382,-1653842.2434231653,5084737.513461462,3592047.485057686,-188.19807929733213,-4939.2566439407865,6886.666779723789,0.9948759068967808,-3.0049460786543663e-05,0.00028024286763014193,0.1011031672959501
0.9450000000000001,-6.659738103219609e-06,0.0006043618659168194,-0.007177959313415821,-45.00763021105964,49.66024550690031,4.924023797825267,-1653843.183700995,5084712.817172808,3592081.918836662,-187.91305257447672,-4939.25881783412,6886.844810706756,0.9948777200875093,-3.0185866055532848e-05,0.0002816753102964446,0.10108531951432219
0.9500000000000001,4.375637969099599e-06,0.000584757303464087,-0.00718341324094668,-44.994882818191755,49.635976997232675,4.929640144164253,-1653844.1225537485,5084688.120873161,3592116.3535056156,-187.62804889240948,-4939.261041151944,6887.02277075101,0.9948795334658781,-3.0360215028869582e-05,0.00028317625095218525,0.10106746647752227
0.9550000000000001,2.313890954157511e-06,0.0005909846299966365,-0.007180158407889082,-44.98765861082975,49.62120797071252,4.926065879400783,-1653845.0599817676,5084663.424562508,3592150.78906421,-187.34315863917246,-4939.263219661201,6887.200666995529,0.994881347914187,-3.0502167220269367e-05,0.00028463121895097604,0.10104959983660196
0.96,-9.623509051524797e-06,0.0005642211205995866,-0.007201390522440162,-44.98009652375128,49.60429585172808,4.927271681494179,-1653845.9959854844,5084638.728240959,3592185.225512147,-187.05832812593923,-4939.265400056925,6887.378507711975,0.9948831612127969,-3.0650818241930984e-05,0.0002861011548863587,0.10103174125931268
0.965,-2.054438337409639e-05,0.0005681027882723246,-0.007173570709840652,-44.97363269434877,49.57928410973684,4.923940053623128,-1653846.9305652268,5084614.031908561,3592219.662849161,-186.7735688613147,-4939.267559266648,6887.556297842284,0.9948849795688351,-3.0822415325714755e-05,0.0002875015075488746,0.10101382985106808
0.97,1.0061182860557794e-05,0.0005672507079057552,-0.007174370424049803,-44.958385056215505,49.566293247221665,4.924652829353749,-1653847.8637213607,5084589.335565426,3592254.1010748823,-186.48888468966697,-4939.269694390974,6887.733990891002,0.9948867905725587,-3.1022135193762735e-05,0.0002889087588954761,0.10099598761134056
0.975,1.0808645066100796e-05,0.0006032642756510803,-0.007165355376406679,-44.94893128940639,49.549182021823334,4.913600599807394,-1653848.7954543186,5084564.639211603,3592288.540188995,-186.20429849721395,-4939.271835054728,6887.911654244256,0.9948886014591688,-3.114551780371126e-05,0.00029032161837626264,0.10097814332782074
0.98,-6.377457029928431e-06,0.0005690273632434361,-0.007166811031455833,-44.94976283201917,49.51350259344791,4.912430513555899,-1653849.7257645065,5084539.9428469995,3592322.9801912145,-185.9197766371466,-4939.274006258475,6888.089233467046,0.9948904097221076,-3.1276126214454466e-05,0.0002918242408785602,0.10096032143071454
0.985,-1.8102899357653346e-05,0.000567410262946209,-0.007163909159186505,-44.93325913743335,49.49220437527922,4.921083178122581,-1653850.654652246,5084515.246471721,3592357.421080979,-185.63531913209948,-4939.276105320489,6888.266672256614,0.9948922180546358,-3.1440839973188495e-05,0.00029323737044725757,0.1009424958956598
0.99,-7.32018947130178e-06,0.0005910877624471682,-0.007167520814141272,-44.91626248185014,49.48435399234757,4.9145569670342955,-1653851.5821180197,5084490.550086052,3592391.8628578368,-185.35099038487712,-4939.278162107865,6888.444070851269,0.9948940253338625,-3.163430738738634e-05,0.00029464351905956934,0.10092467755435812
0.995,-1.1263523289657466e-05,0.0005796419565985796,-0.007154387735929651,-44.936384514120164,49.45114437633124,4.907771386973786,-1653852.5081623679,5084465.853689976,3592426.3055216186,-185.06674888712328,-4939.280268315988,6888.621441803601,0.9948958331863922,-3.1806932427664614e-05,0.0002961112794018352,0.10090685018760563
1.0,-1.677156900200485e-05,0.0005784204777975028,-0.007169222174234707,-44.91014305477291,49.42988995175314,4.900232814071388,-1653853.432785424,5084441.157283579,3592460.7490718495,-184.7824735506767,-4939.282290654278,6888.798650598724,0.9948976374130463,-3.19864683509615e-05,0.00029754957745802105,0.10088905545723803
1.0050000000000001,-1.6801782799847194e-05,0.0005512176311192801,-0.007132626145230531,-44.90464344317236,49.41325990754903,4.911350388464765,-1653854.3559874822,5084416.460866965,3592495.193507931,-184.49834975528546,-4939.284354559638,6888.975782161338,0.9948994450607274,-3.2179407068443086e-05,0.0002989834468621884,0.10087122380164258
1.01,1.07378324819439e-05,0.0005794754483006306,-0.007197686481639642,-44.903944670771494,49.39592333428425,4.900550447480805,-1653855.277769107,5084391.764440193,3592529.638829612,-184.21430011183338,-4939.286354619067,6889.152890222474,0.9949012431800667,-3.236553360972249e-05,0.00030034965125238307,0.10085348313924059
1.0150000000000001,-2.6220506360596726e-06,0.0005615525720219536,-0.007149918331557804,-44.87880411681876,49.37623006488978,4.901815928682986,-1653856.1981305478,5084367.068003392,3592564.085036604,-183.93027618903648,-4939.288365731514,6889.329906574258,0.994903057363088,-3.249033574717675e-05,0.00030179307829023954,0.10083558059978612
1.02,8.753972285946061e-06,0.0005746026472875402,-0.007165664512912978,-44.87436420371421,49.350837827627245,4.903192818578883,-1653857.1170722565,5084342.371556515,3592598.53212856,-183.64640738743913,-4939.290385045162,6889.506875779763,0.9949048591946884,-3.264381314618003e-05,0.0003031885624204781,0.10081779685092455
1.025,-2.38511716406983e-05,0.000560647455485094,-0.0071692446235451564,-44.869484941835026,49.32293924293294,4.896270078444911,-1653858.0345948031,5084317.675099661,3592632.980105144,-183.3626112298326,-4939.292356588182,6889.68375774709,0.9949066646654755,-3.2772296518209004e-05,0.00030461937139013523,0.10079997389500794
1.03,-1.2002192766854609e-05,0.0005752448342123723,-0.007151479635369621,-44.85316850999396,49.30681500507008,4.892085394635079,-1653858.95069854,5084292.978632999,3592667.428965837,-183.0788835576349,-4939.294308206788,6889.860519482469,0.9949084707249585,-3.297836358613464e-05,0.0003060072531905844,0.10078214202780746
1.035,1.702230236264077e-05,0.000570289117114787,-0.0071395761889014005,-44.847141121358014,49.29523295674142,4.883123784127452,-1653859.865383894,5084268.28215653,3592701.8787102005,-182.79525795950562,-4939.296279618519,6890.037225918097,0.9949102719774474,-3.315862331700174e-05,0.00030743442941005155,0.10076435430418344
1.04,7.075164478130954e-06,0.0005895215340784562,-0.007141900966901079,-44.83288599072857,49.2662653319408,4.886761912839697,-1653860.7786512238,5084243.585670133,3592736.3293379494,-182.51167397928796,-4939.298278942644,6890.213873597928,0.9949120699180102,-3.326543356844863e-05,0.00030885659186919974,0.10074659613345302
1.045,1.2741662398594806e-05,0.0005669361594730667,-0.007144177395694187,-44.834814020943334,49.243052351187664,4.8884373859457035,-1653861.6905009486,5084218.889173852,3592770.7808487182,-182.22821597775803,-4939.30023343623,6890.390433974353,0.9949138681092695,-3.340183092450612e-05,0.00031032408509464916,0.10072883215411083
1.05,-1.0144983752297332e-05,0.0005597067456956239,-0.007137181101178715,-44.81983796673553,49.21785005335213,4.881384271754169,-1653862.600933485,5084194.192667942,3592805.233242082,-181.94479849959163,-4939.302130872221,6890.56691151439,0.9949156665724267,-3.351844834649553e-05,0.0003117368287236654,0.10071106247779966
1.055,-1.0423245452545313e-05,0.0005720949692986357,-0.007136819399371447,-44.80185527497752,49.19284011113289,4.883637288003675,-1653863.5099492054,5084169.496152525,3592839.68651758,-181.66148971923786,-4939.304035733827,6890.743287732365,0.9949174629587525,-3.369016580739123e-05,0.0003131258288502876,0.10069331018944357
1.06,-5.021514391519714e-06,0.0005714372022452273,-0.007117540543947742,-44.802368694516254,49.172255193280435,4.879752569729824,-1653864.4175487165,5084144.79962764,3592874.140674779,-181.378314699845,-4939.305917964237,6890.91959189365,0.9949192589255758,-3.386569362101537e-05,0.00031454557200932576,0.10067555876766271
1.065,-8.94607923871775e-07,0.0005872756879006068,-0.007143810316320696,-44.79352060635219,49.150841061000264,4.876038589906342,-1653865.32373244,5084120.103093411,3592908.5957132825,-181.09517464515187,-4939.307773996559,6891.0958094785765,0.9949210497231997,-3.4027604995300234e-05,0.0003159650401930473,0.10065785526178295
1.07,-3.0340532467229527e-06,0.0005822627599709277,-0.007129387425163473,-44.777673993094595,49.1247362503861,4.875763567655833,-1653866.2285006596,5084095.406549925,3592943.0516326698,-180.81211323473792,-4939.309620407259,6891.271945332801,0.9949228468010454,-3.418325791422579e-05,0.00031742493966176974,0.10064008637822272
1.075,-1.3253930174909302e-05,0.0005534448540127006,-0.00712445489725764,-44.76742110583905,49.10194051908764,4.869407136033634,-1653867.1318538794,5084070.709997255,3592977.5084325224,-180.52917473084884,-4939.31144721788,6891.447995858324,0.9949246399350543,-3.434295958056326e-05,0.0003188718332851037,0.10062235333869772
1.08,5.43394070639874e-06,0.0005860982459024769,-0.007135999199486486,-44.75907321654596,49.07937266766439,4.874298385017151,-1653868.033792617,5084046.013435451,3593011.9661123944,-180.24632026659293,-4939.313274518097,6891.623952827641,0.9949264315325003,-3.452082800846066e-05,0.0003202444772481238,0.1006046325463817
1.085,3.635165358426897e-06,0.0005788207683321254,-0.00712953930020152,-44.755563185464396,49.06100150088223,4.8633252505597975,-1653868.934317306,5084021.316864628,3593046.424671894,-179.96355530333395,-4939.31505462609,6891.79984700834,0.994928225690782,-3.466043573232801e-05,0.000321703039635066,0.10058688298978583
1.09,-6.960740813314465e-06,0.0005463495771270631,-0.0071142678867790925,-44.73301302473921,49.03592649606311,4.863651417949271,-1653869.8334282697,5083996.6202848675,3593080.884110629,-179.68083024976536,-4939.316849749043,6891.975647115106,0.9949300179118334,-3.480268233362539e-05,0.0003231430487261604,0.1005691494709098
1.095,-1.1929864014753834e-06,0.0005844195411524211,-0.007098077034555425,-44.72795005510893,49.00782638480421,4.863029650551172,-1653870.731125988,5083971.923696145,3593115.3444281803,-179.39825705522875,-4939.318638966104,6892.151373264553,0.9949318060012399,-3.4963108049288264e-05,0.0003244996285825983,0.10055145391630757
1.1,1.5633203071787424e-05,0.0005537714842551023,-0.007108795843869464,-44.72265182399393,48.999777992079245,4.851004389234351,-1653871.6274110344,5083947.22709859,3593149.805624103,-179.11576147227305,-4939.32038326038,6892.326995995315,0.9949335896742304,-3.511874428881352e-05,0.00032595235218656,0.10053379859374692
1.105,-1.099917038617811e-05,0.0005967842962127706,-0.007119236990405296,-44.71177406892935,48.97684095845541,4.870473161884583,-1653872.5222836726,5083922.530492197,3593184.267698006,-178.83329386386671,-4939.322174040251,6892.502565056183,0.9949353757518932,-3.522483398507615e-05,0.0003273330717946869,0.10051611656699838
1.11,-1.4643118615476687e-06,0.00059182721885196,-0.007082122817149837,-44.69701461576909,48.95088579666393,4.861391824843379,-1653873.4157442735,5083897.833877101,3593218.7306497004,-178.55094645607116,-4939.323864445313,6892.678112667471,0.9949371640990028,-3.540798464274928e-05,0.0003288140853428013,0.10049840855558871
1.115,1.9975364714275586e-05,0.0005810522143439998,-0.0070926983069945155,-44.685631635335156,48.92957003153349,4.8560770501599615,-1653874.3077934033,5083873.137253519,3593253.194478857,-178.26870544008966,-4939.3255680070815,6892.8535499594955,0.9949389428105166,-3.5566142871308274e-05,0.00033028516771595976,0.10048079282056405
1.12,1.059040770087924e-05,0.0005646194931146487,-0.0071141353655039315,-44.67584317086066,48.90297594348302,4.851124658781385,-1653875.198431547,5083848.440621415,3593287.6591849905,-177.9865521367463,-4939.327273571346,6893.028903471076,0.9949407238749204,-3.566827519558716e-05,0.00033173483355465936,0.10046315073211605
1.125,2.0326900991876774e-05,0.00059574781621474,-0.007116075667856285,-44.677063677096335,48.878150050584026,4.848807248832148,-1653876.0876591508,5083823.743980821,3593322.1247676276,-177.70448935049907,-4939.3289643151875,6893.204151471748,0.9949425100203881,-3.578964176953461e-05,0.0003331412663117366,0.10044545529952144
1.1300000000000001,-5.179315051962874e-07,0.00056652710543887,-0.00709885492146725,-44.657146031906535,48.854161016346524,4.8404774047311845,-1653876.975476544,5083799.047331882,3593356.591226255,-177.4224679011789,-4939.330611408118,6893.379299414301,0.9949442963111375,-3.589460856683336e-05,0.0003346275709851471,0.10042775499781631
1.135,-2.268129986191241e-05,0.0005586143642950352,-0.007096798534927794,-44.648906532353834,48.82827431435846,4.848205350618786,-1653877.8618841472,5083774.350674644,3593391.058560382,-177.14057339707327,-4939.3322837197275,6893.5543513808,0.9949460779846268,-3.6044073138439074e-05,0.00033603596114940235,0.10041009751846006
1.1400000000000001,1.6276895002937735e-07,0.0005859649671593805,-0.00709663198769683,-44.6405479047237,48.80624158125231,4.84158284670475,-1653878.7468825243,5083749.65400921,3593425.5267695975,-176.8587774422589,-4939.333889715056,6893.729334861973,0.9949478588313134,-3.624667806435163e-05,0.0003374191059506244,0.1003924451416055
1.145,-8.408097711241421e-06,0.0005781333569625821,-0.007080356898814397,-44.63245521251731,48.790690738709955,4.842782615767946,-1653879.630472106,5083724.957335748,3593459.995853498,-176.57705520255126,-4939.33549506615,6893.90422545342,0.9949496392999782,-3.6399325679652126e-05,0.00033887601514924037,0.10037479312546059
1.1500000000000001,1.476617891293293e-06,0.0005807122229280318,-0.007103623717157254,-44.61893711965087,48.763976316424596,4.827511667420498,-1653880.5126532537,5083700.260654302,3593494.4658117397,-176.29540389761348,-4939.337083239597,6894.079071164676,0.9949514153759125,-3.6571313206455115e-05,0.00034031129482995276,0.10035718156778947
1.155,1.7032953443273133e-05,0.0005657145474935836,-0.007093540308329167,-44.601068233259056,48.73559067705822,4.829078347470716,-1653881.3934263804,5083675.563964833,3593528.9366438803,-176.01384674927996,-4939.338704606728,6894.253785040802,0.9949531969731835,-3.6719380506439886e-05,0.0003417554668970791,0.10033951209633012
1.16,-2.553090318174535e-05,0.0005738857167745141,-0.007063821634203032,-44.594973470220324,48.712857267447255,4.829634594898442,-1653882.272792067,5083650.867267326,3593563.4083493706,-175.73242791087176,-4939.340297887501,6894.428411000905,0.9949549757398938,-3.682498246657322e-05,0.0003431662371065113,0.10032186766244916
1.165,-8.575617112640265e-06,0.0005472421941083467,-0.007071569863921732,-44.579319994441605,48.68686250652535,4.826166195180575,-1653883.1507508445,5083626.170561942,3593597.8809277965,-175.4510830991308,-4939.341855919752,6894.60295943759,0.9949567467284763,-3.7038481088725064e-05,0.0003445866595936051,0.10030429715456674
1.17,2.2407220851399642e-05,0.0005780686529551165,-0.007071482044210594,-44.57115311847055,48.66021781939963,4.827443434677847,-1653884.0273031918,5083601.473848785,3593632.3543787296,-175.16985584709062,-4939.343406645538,6894.777413683054,0.9949585193719482,-3.7203130783879694e-05,0.0003459450600935339,0.10028670733014886
1.175,1.6827222687430712e-06,0.000565530410069082,-0.007077824530181144,-44.55951354277536,48.649235268543954,4.816327339199751,-1653884.9024496311,5083576.777127982,3593666.828701709,-174.88871982292105,-4939.344914548374,6894.951778185202,0.9949602916566865,-3.729844250505795e-05,0.000347387906029456,0.10026911766296802
1.18,-1.6748536336586938e-05,0.0005815226638060703,-0.007068632904067094,-44.54631139748732,48.616255998811276,4.827193177503202,-1653885.776190547,5083552.080399518,3593701.3038963666,-174.60764658821907,-4939.346471498406,6895.126084801115,0.9949620652269947,-3.7442166859261866e-05,0.00034879436856212335,0.10025151220707972
1.185,-7.566493565630518e-06,0.0005485256423937371,-0.007066441660476829,-44.53691279321562,48.58171428109079,4.82068538451982,-1653886.6485264406,5083527.38366348,3593735.779962346,-174.32671086018468,-4939.347943564863,6895.300306928713,0.9949638361647838,-3.763573731357384e-05,0.00035023599165604,0.10023392959751048
1.19,5.6792219975135525e-06,0.0005871932054746954,-0.007068434643069081,-44.52740619918222,48.56556456391632,4.808731164285296,-1653887.5194579079,5083502.686920151,3593770.2568990793,-174.04587605495436,-4939.349387827997,6895.47438648109,0.9949656062706326,-3.7798197783376306e-05,0.0003515978386191503,0.10021635240203444
1.195,-1.613137491534722e-05,0.0005732651346340421,-0.007066792155794397,-44.51029641167004,48.54366265795942,4.819648118696185,-1653888.3889853547,5083477.990169511,3593804.734706003,-173.76510262934886,-4939.35086823929,6895.648382999295,0.9949673765304525,-3.793740021990851e-05,0.00035305918611506284,0.10019877020240103
1.2,6.137234175178168e-06,0.0005638608621698462,-0.007068420815164266,-44.500749054831864,48.516070907231125,4.808924081344564,-1653889.2571092723,5083453.293411599,3593839.213382819,-173.4844644065627,-4939.352296967314,6895.82234337875,0.994969146076341,-3.8127364336835e-05,0.0003544804252280592,0.10018119207740035
1.205,-1.0720389986120526e-05,0.000560480969469042,-0.007060731745909952,-44.49269791740197,48.49130837595293,4.798018746373118,-1653890.1238302079,5083428.596646529,3593873.6929291217,-173.2039098593636,-4939.353730768199,6895.996177722591,0.994970915727954,-3.8259583109625825e-05,0.0003558838489115815,0.10016360985091857
1.21,-6.886358159974945e-06,0.0005867231144004146,-0.007089869163460892,-44.4765518644854,48.468876462620926,4.806973653863304,-1653890.98914855,5083403.899874267,3593908.1733443057,-172.9234269625822,-4939.355173776238,6896.169895786816,0.9949726831432257,-3.843288078809037e-05,0.00035727464468028375,0.10014604673431753
1.215,-1.5547877744338227e-05,0.0005574263539206818,-0.0070410220452641215,-44.47432243709854,48.4451447066373,4.811681434069705,-1653891.8530648008,5083379.203094909,3593942.654627968,-172.64307333865048,-4939.3565696574715,6896.343569225312,0.9949744575170694,-3.86032377049019e-05,0.00035873167298808956,0.10012841110289498
1.22,-2.354023036019811e-06,0.0005452232084802721,-0.0070563601399357655,-44.447054166635084,48.41939355678845,4.801949465236429,-1653892.7155794427,5083354.506308725,3593977.136779815,-172.36278345097176,-4939.357903676168,6896.517169459362,0.9949762193764141,-3.878776218376168e-05,0.00036011366391598617,0.10011089695470915
1.225,-1.020705070902418e-05,0.0005553410357014364,-0.007043499064846362,-44.44235302753268,48.3902894123727,4.796277009305051,-1653893.576693038,5083329.809515768,3594011.6197994095,-172.08265467137065,-4939.359279323387,6896.690668450175,0.9949779847759438,-3.8936427360396794e-05,0.0003614686007668313,0.10009334461195263
1.23,8.145671371323133e-06,0.0005608716040795889,-0.007055511854575652,-44.4379254222753,48.37311223740409,4.792766710014524,-1653894.4364061672,5083305.112716003,3594046.103686194,-171.80259697533552,-4939.360626713598,6896.864045350483,0.9949797466363376,-3.910714669471265e-05,0.0003628467412054509,0.10007582423524222
1.235,2.553408254681529e-06,0.0005436720120357638,-0.007040454949265643,-44.416214049999006,48.33726158170619,4.800349688576587,-1653895.2947191359,5083280.415909526,3594080.5884396937,-171.52259050267048,-4939.361964158356,6897.037354415192,0.9949815111880078,-3.923360913737065e-05,0.00036424322902448063,0.10005827392885867
1.24,-8.152710365162034e-06,0.0005490231487204347,-0.007047833591785493,-44.4009874044926,48.318011202993546,4.784309481836858,-1653896.1516325134,5083255.719096514,3594115.074059492,-171.2427605573186,-4939.363240382018,6897.21056506746,0.9949832716775691,-3.936966594912052e-05,0.0003655955361358802,0.10004076105135529
1.245,-5.315909997466375e-06,0.0005777544372852578,-0.007022326799789129,-44.39415927415918,48.293261301614876,4.7840493173147935,-1653897.0071469597,5083231.02227698,3594149.5605450883,-170.96301790589817,-4939.364573357494,6897.383673298954,0.9949850336961725,-3.953369884437527e-05,0.00036695847551505736,0.10002322979783397
1.25,1.9271954238159405e-05,0.0005597818707802739,-0.007027340017906166,-44.377753685335165,48.266019935157004,4.793123602196631,-1653897.861262892,5083206.325450869,3594184.047896006,-170.68335498875467,-4939.365871081233,6897.556693987037,0.9949867890007669,-3.96978363834065e-05,0.0003683935946710768,0.10000576195492267
1.2550000000000001,-1.1270631336480203e-05,0.0005504209816287443,-0.007013455791198252,-44.38032078369897,48.2477069404282,4.7922078410519555,-1653898.7139808575,5083181.6286184145,3594218.536111869,-170.40383122581335,-4939.36711058319,6897.729650984571,0.9949885452688365,-3.9796323626490443e-05,0.00036979015436984703,0.0999882815898887
1.26,-1.0546784000880587e-05,0.0005592393778051572,-0.007020017499320002,-44.361623021365055,48.20831943253541,4.780639059971158,-1653899.565301267,5083156.931779856,3594253.025192339,-170.12433264172523,-4939.368312920851,6897.902537015596,0.9949902977634595,-3.996843188053183e-05,0.00037115579564003445,0.09997083575964545
1.2650000000000001,2.5185126059193484e-06,0.0005782955705086858,-0.0070329545519107394,-44.34397550111455,48.188545821104654,4.777934793322559,-1653900.4152245454,5083132.2349352855,3594287.5151368165,-169.8449787305272,-4939.369515166518,6898.075254128642,0.9949920515818311,-4.0140949614133406e-05,0.00037254355259529404,0.09995337357480444
1.27,-1.989655341676825e-05,0.0005527397787045407,-0.007040884337765444,-44.33691347391709,48.1665664662586,4.775572685401347,-1653901.2637513448,5083107.538084685,3594322.0059447167,-169.5657410021808,-4939.370725314638,6898.247905934082,0.9949938083074813,-4.0285741545489725e-05,0.0003739819748384415,0.09993587916417639
1.2750000000000001,3.276337310375115e-05,0.0005593865124410379,-0.007023534078121501,-44.31729660925774,48.12909090816087,4.772788708570501,-1653902.1108821384,5083082.841228083,3594356.497615671,-169.28657636434025,-4939.371915267147,6898.420475751525,0.9949955667260119,-4.0479913156749126e-05,0.00037535122635660474,0.09991836502073065
1.28,-1.932469651211613e-05,0.0005802806043385963,-0.007014685269813826,-44.3107817941035,48.11616910882571,4.766270861996244,-1653902.9566175002,5083058.144365603,3594390.990149135,-169.00756837113542,-4939.373076797226,6898.592909746541,0.9949973205001547,-4.0544737817661225e-05,0.00037675016742477323,0.09990089395470005
1.285,8.34495611143437e-06,0.0005623682798033739,-0.007006372375297632,-44.30347287060437,48.09233023082702,4.766712328339829,-1653903.8009579445,5083033.447497276,3594425.4835446253,-168.72860942665793,-4939.374254176748,6898.765286462905,0.9949990717309197,-4.074434120191729e-05,0.00037818807407492697,0.09988344491599821
1.29,-6.771006038591197e-06,0.0005753446965108487,-0.006999153372623931,-44.279870162223126,48.067968019097385,4.76462857599306,-1653904.643903797,5083008.750623149,3594459.9778017956,-168.44973157645555,-4939.375396530731,6898.937581636199,0.99500082059797,-4.087063565559265e-05,0.0003795883339397472,0.09986601650038061
1.295,6.149373750032767e-06,0.0005622446095675481,-0.007043582179659185,-44.26762966099922,48.03362429260145,4.7642562562215245,-1653905.4854556401,5082984.053743293,3594494.4729202483,-168.17100562811734,-4939.376545914211,6899.109799457733,0.9950025673418562,-4.103776399051699e-05,0.0003810170993609369,0.09984860602425548
1.3,-9.707785100308343e-06,0.0005626431847190837,-0.007015270162637565,-44.260350598487534,48.00558649073365,4.759844871128694,-1653906.3256141557,5082959.356857805,3594528.968899484,-167.89240066203172,-4939.377649381455,6899.281894812512,0.9950043248813342,-4.116952504183429e-05,0.00038241649876023435,0.09983108498925664
1.305,2.4558307711353415e-05,0.000569979885173931,-0.0070118150738555755,-44.2459194469062,47.97928681124279,4.752364349289662,-1653907.1643798524,5082934.659966863,3594563.465738916,-167.61387794787962,-4939.378727234351,6899.453877989741,0.9950060750434943,-4.134080334246322e-05,0.0003838129348212222,0.0998136343647969
1.31,-9.354434705158855e-06,0.0005438618144417917,-0.007003988300797423,-44.2418209935096,47.96079372809311,4.752752488977438,-1653908.0017532036,5082909.963070519,3594597.963437994,-167.3354624957426,-4939.379810175778,6899.625753296831,0.9950078240320961,-4.142867164558882e-05,0.00038523617183248613,0.09979619227039871
1.315,2.3683589619650604e-06,0.0005554949964326811,-0.006987428440197508,-44.212892564748714,47.92812816044069,4.758904722463783,-1653908.8377346199,5082885.266168834,3594632.461996292,-167.05710406227763,-4939.380863962867,6899.7975659854,0.9950095707822926,-4.1594374798094316e-05,0.00038658597941717,0.0997787696497923
1.32,-1.8401685182376235e-05,0.0005529212794486504,-0.006996462884316529,-44.19299326503029,47.90565688746514,4.747633108855997,-1653909.672324747,5082860.5692619635,3594666.9614134445,-166.77894683977186,-4939.381884124001,6899.969294933573,0.9950113130854308,-4.173380306500704e-05,0.0003879676506382383,0.09976138817898769
1.325,-6.576544762243366e-07,0.0005706080573234553,-0.007003796373198312,-44.19199109623127,47.87479995307179,4.742318399271463,-1653910.5055243883,5082835.872349893,3594701.4616889954,-166.50090965939467,-4939.382944248963,6900.140925403931,0.9950130573361873,-4.192426426005765e-05,0.00038933773848253566,0.0997439842244883
1.33,4.35553888804074e-06,0.0005653253676943434,-0.006993805721402855,-44.17836480246609,47.84681632928604,4.7366824440154875,-1653911.3373339884,5082811.175432625,3594735.96282237,-166.2229303685569,-4939.383962956702,6900.31242446919,0.9950148030935684,-4.2075004098830656e-05,0.00039075624652631035,0.09972656197782652
1.335,-9.071140426822831e-06,0.0005756561390687373,-0.006989961069670457,-44.16300376426758,47.818715007884336,4.733795189695471,-1653912.1677539647,5082786.478510283,3594770.4648129647,-165.94506007839857,-4939.384973909645,6900.483813289048,0.9950165460591788,-4.2211946599655946e-05,0.000392162864485956,0.09970916454820722
1.34,2.1252720855862146e-06,0.0005806627829356557,-0.006990651868707845,-44.14844189916594,47.78603353189646,4.731023803804682,-1653912.9967848905,5082761.781582925,3594804.9676602487,-165.66731030220296,-4939.385969536524,6900.655100478105,0.9950182877488344,-4.2384859919821025e-05,0.00039359183404439143,0.0996917766637235
1.345,-3.8410593241706845e-06,0.0005594046067056761,-0.006959895349136275,-44.135828409941304,47.76630972612102,4.727324687089549,-1653913.8244273807,5082737.084650657,3594839.471363668,-165.3896857913923,-4939.386937208022,6900.826267085057,0.9950200293009573,-4.25311701217273e-05,0.00039503604813975973,0.09967438701864367
1.35,3.0790540816849786e-07,0.0005432392974829807,-0.006998973276560623,-44.11978546302815,47.73062297159168,4.730300048095452,-1653914.6506819788,5082712.387713549,3594873.9759227396,-165.11215341202487,-4939.3879063747945,6900.997361566097,0.9950217629047482,-4.26869942447008e-05,0.0003964258978805756,0.09965707385958629
1.355,2.2966854195843283e-05,0.0005569796265834555,-0.006975143956053237,-44.10183590242826,47.723562777844855,4.72034361389823,-1653915.4755492765,5082687.69077173,3594908.4813369946,-164.83476566727475,-4939.388821022818,6901.16834048851,0.995023505956152,-4.282850883934558e-05,0.00039777656492765296,0.0996396634591411
1.36,-8.63747277255239e-06,0.0005579918206683486,-0.00699002227844308,-44.09491175809085,47.682565613724286,4.7296833507983065,-1653916.2990298488,5082662.993825172,3594942.9876060598,-164.5574632817788,-4939.389801891646,6901.339285583043,0.9950252427549692,-4.2917056961630226e-05,0.00039916705860521646,0.0996223122809361
1.365,7.797160670320435e-06,0.0005653024107065259,-0.006968591717158493,-44.08347089418873,47.66325566248255,4.709952989641736,-1653917.1211242126,5082638.296873987,3594977.4947295333,-164.28028228466775,-4939.3906722797565,6901.510103885755,0.9950269829497705,-4.3084489768728296e-05,0.0004005521972203676,0.09960492409284367
1.37,3.3701795513919814e-06,0.0005430948626692744,-0.00695236838658283,-44.066502824124214,47.63466447430364,4.718570629487373,-1653917.9418328353,5082613.599918292,3595012.002706808,-164.00316678786095,-4939.391605899238,6901.680805906462,0.9950287174976569,-4.321283927009526e-05,0.00040195961603299964,0.09958758916695298
1.375,4.633600504355138e-06,0.0005474316131898219,-0.006978286377433323,-44.056766473655976,47.59812456555776,4.718012014278526,-1653918.7611562388,5082588.902958075,3595046.511537417,-163.72619461189197,-4939.392480945029,6901.851437729467,0.9950304477250674,-4.3346655898403625e-05,0.0004033106914247489,0.09957029457426296
1.3800000000000001,-3.9534313807756256e-06,0.0005611144029077464,-0.006962653562815201,-44.03165165673278,47.57598135298804,4.705731090013227,-1653919.5790950647,5082564.205993621,3595081.02122085,-163.44933570175195,-4939.393300507848,6902.02193543175,0.9950321840963303,-4.3478435319016924e-05,0.00040467286637982733,0.09955293547647688
1.385,-2.633312001213424e-05,0.0005649849641923199,-0.006950512753662388,-44.021389677867965,47.54865966830179,4.703984387171096,-1653920.3956499496,5082539.509024931,3595115.531756532,-163.1726182844084,-4939.394175353519,6902.19233734472,0.9950339162580114,-4.36349652483333e-05,0.0004060669427902315,0.09953561524335236
1.3900000000000001,1.687403864692915e-05,0.0005280018903874646,-0.006954570442000476,-43.99975764925438,47.524162935465924,4.707060922467661,-1653921.2108214917,5082514.812051939,3595150.0431439746,-162.8959984708445,-4939.395021667709,6902.362639704832,0.9950356450892798,-4.384811735922114e-05,0.0004074650798106094,0.09951832520351361
1.395,1.0774944023979248e-05,0.0005542073059639531,-0.006941553089839792,-43.98777619928585,47.49142999141431,4.699059725789934,-1653922.0246103087,5082490.115074759,3595184.555382766,-162.61952842191818,-4939.395850188524,6902.53287675885,0.9950373746700195,-4.394459069881593e-05,0.00040878196733073796,0.09950102499960224
1.4000000000000001,-2.4435331790210326e-05,0.000560028760856103,-0.006950505002559535,-43.98460584746465,47.47081857589583,4.696411177258789,-1653922.837017043,5082465.418093469,3595219.068472398,-162.34316531500073,-4939.39666587789,6902.702976160034,0.9950391006831604,-4.406274145395379e-05,0.0004101625274112583,0.09948375715072069
1.405,2.017336888043665e-06,0.0005674656594268959,-0.006939908475839723,-43.96744761480336,47.4453521456696,4.695576375505603,-1653923.6480420935,5082440.721108161,3595253.582412326,-162.06685478582793,-4939.397457483644,6902.872994911861,0.9950408286108955,-4.426993822852187e-05,0.00041154881069296526,0.0994664670383526
1.41,1.3398280594399086e-05,0.0005473327854966194,-0.006958187257296546,-43.959309836378104,47.4169373511081,4.684542078443699,-1653924.457685907,5082416.024118928,3595288.0972021376,-161.79067062945606,-4939.398235317373,6903.042929796246,0.995042553596951,-4.44131696788579e-05,0.0004129601729505835,0.09944920322770252
1.415,3.856932267922044e-07,0.0005690114082067771,-0.006931633029160975,-43.935053666903144,47.379585235506035,4.6827313484649915,-1653925.2659489948,5082391.3271258045,3595322.612841294,-161.51456451996606,-4939.399014300536,6903.2127329310115,0.9950442828473354,-4.452310318282906e-05,0.00041432427995196177,0.09943189390691685
1.42,7.194306982938865e-06,0.0005753682917107589,-0.0069385905284695334,-43.91984575576098,47.34759866908333,4.686484541315807,-1653926.0728319976,5082366.630128843,3595357.129329144,-161.23863664503983,-4939.399770487647,6903.382406989981,0.9950460051710788,-4.4670768286079955e-05,0.0004157390830917775,0.0994146506236115
1.425,-7.155424820194675e-06,0.0005496830741806066,-0.0069242099353589845,-43.90243919809833,47.324457203081735,4.689414158096488,-1653926.8783356992,5082341.933128227,3595391.6466651163,-160.96284391776098,-4939.400475765323,6903.551981903724,0.9950477289170231,-4.480308331565742e-05,0.0004171713909975131,0.09939738999485268
1.43,2.829549673991106e-07,0.0005384864911063995,-0.006906237659495193,-43.88987075946502,47.289986298397416,4.681905267013565,-1653927.6824607572,5082317.236124142,3595426.164848804,-160.6871793409504,-4939.401158213348,6903.721493115485,0.995049448813905,-4.49646973949049e-05,0.00041853623952975086,0.09938016512733429
1.435,2.1520670704900094e-05,0.0005692058210919333,-0.0069359695747099335,-43.879302131194486,47.273382804650886,4.681222529063825,-1653928.4852077756,5082292.539116689,3595460.6838796902,-160.41162800522955,-4939.401823023122,6903.8908613956255,0.9950511639588797,-4.510500697055068e-05,0.0004198750851404068,0.09936298493166301
1.44,-1.6201352351879876e-07,0.0005580006782376776,-0.006908728480229994,-43.85817630186096,47.24348109453166,4.682542519191727,-1653929.28657724,5082267.842105931,3595495.2037572856,-160.13615774544374,-4939.40248030088,6904.0601767729595,0.9950528861598175,-4.520014711823163e-05,0.000421295621141619,0.09934573071835397
1.445,-1.2920637163737634e-05,0.0005597989942641471,-0.006911767176159845,-43.845427508837204,47.20792164694763,4.67276626659056,-1653930.0865697402,5082243.145091947,3595529.7244812264,-159.86084233214316,-4939.403113108008,6904.229399499644,0.9950546013044007,-4.534641414693986e-05,0.00042268290061446014,0.09932854426502144
1.45,8.507625112304005e-06,0.0005593584395080204,-0.006927309303043619,-43.83244448748628,47.17894638992936,4.669659952222322,-1653930.885185946,5082218.448074827,3595564.2460508966,-159.58563997390786,-4939.403735027301,6904.398468652195,0.9950563169012963,-4.5524869751220704e-05,0.0004240714849336514,0.09931135023595801
1.455,-1.3421151094504732e-06,0.0005337251359270813,-0.006911821810439709,-43.812409965884356,47.161012849037334,4.665108883789585,-1653931.6824264172,5082193.75105465,3595598.768465643,-159.31054851576152,-4939.4043354137,6904.567429821102,0.9950580360601524,-4.5649926619660596e-05,0.0004254642915883919,0.09929411749108469
1.46,-1.903424981971339e-05,0.0005430194181486382,-0.006903984015255555,-43.80268419763671,47.12614406255072,4.677211329797484,-1653932.4782917337,5082169.054031412,3595633.2917250413,-159.03557804324257,-4939.404959769734,6904.736329615192,0.9950597511009744,-4.579310656817275e-05,0.00042679088826757297,0.09927692325709891
1.465,8.226106411305418e-06,0.0005706244694236311,-0.006897409619545186,-43.786285510181,47.09306354675902,4.65936444938124,-1653933.2727825134,5082144.357005307,3595667.815828709,-158.76073389680337,-4939.405482440967,6904.9051373299335,0.9950614638859987,-4.598259673745322e-05,0.0004281362155796191,0.09925974850882377
1.47,-1.9631990058866684e-06,0.0005750673496734144,-0.006911754733960366,-43.770994714943676,47.072462246996025,4.654310258808981,-1653934.065899359,5082119.659976503,3595702.3407760067,-158.4860043467235,-4939.406039190328,6905.073781903209,0.9950631747150942,-4.611111570729527e-05,0.00042955697996626736,0.09924259005328236
1.475,1.6550384928366782e-05,0.0005657101887575047,-0.006884060839822967,-43.755091890398425,47.03277181478263,4.654237625617031,-1653934.8576428164,5082094.96294489,3595736.866566334,-158.21137857182305,-4939.4066060035,6905.242348936139,0.9950648887988314,-4.6266099882278135e-05,0.00043098626690403366,0.09922539589265958
1.48,1.4836873724437758e-06,0.000568585077326721,-0.006901763255324668,-43.738647502945184,47.01533452317842,4.654441720640011,-1653935.6480135124,5082070.265910573,3595771.3931991444,-157.93689981751544,-4939.407120579515,6905.410775297245,0.995066595727008,-4.6372677490842164e-05,0.0004323968720045009,0.09920827057651575
1.485,2.4046453702398408e-05,0.0005350067590897406,-0.00688246470175681,-43.721002961885254,46.98160893318042,4.650016794744247,-1653936.4370120896,5082045.568873687,3595805.920673964,-157.66253110386805,-4939.407634109894,6905.579152597063,0.9950683067434068,-4.651746817211893e-05,0.00043381088983486315,0.09919110120896013
1.49,8.204791470167042e-06,0.0005636743548879763,-0.006869666039701382,-43.711371666887594,46.945799773225275,4.629548573702051,-1653937.2246391699,5082020.871834277,3595840.4489903525,-157.38830096291693,-4939.4081298198125,6905.747402685975,0.995070012715918,-4.659778249958511e-05,0.00043514697304332633,0.09917397979964976
1.495,1.823412037891998e-05,0.000545605013866768,-0.00688227545797235,-43.68874990316755,46.91591124061594,4.640434298986679,-1653938.0108953135,5081996.174792328,3595874.9781475235,-157.11415649535175,-4939.408649740063,6905.915465655781,0.9950717151862363,-4.672459949645089e-05,0.00043655044557391496,0.099156890213652
1.5,-8.938713111232265e-06,0.0005590845775008009,-0.00687023534696578,-43.67549418463176,46.893542388002835,4.630997093101016,-1653938.795781169,5081971.477747927,3595909.508144847,-156.84018573212583,-4939.4091104607305,6906.083463838173,0.9950734205072708,-4.682200123807898e-05,0.00043791145196900056,0.0991397692211394
1.5050000000000001,2.128448028687953e-05,0.0005477317271675593,-0.006863668423372936,-43.65790541689318,46.85392603091746,4.636560483584029,-1653939.579297401,5081946.780701175,3595944.038981915,-156.56630707957004,-4939.409590251547,6906.251363315767,0.9950751225302715,-4.699032809750376e-05,0.0004392992577608213,0.0991226781792965
1.51,-1.797493067652422e-05,0.0005492775151413894,-0.006882561177001061,-43.65389212292313,46.82681010623965,4.630336337073224,-1653940.361444644,5081922.083652202,3595978.570658172,-156.29259003948164,-4939.409999147553,6906.419139459317,0.9950768226467893,-4.708064854887448e-05,0.00044066631135612717,0.09910560341264724
1.5150000000000001,-1.7028119164143328e-06,0.0005466613393995085,-0.00687817779617705,-43.62924694285643,46.792781205069794,4.631449632049769,-1653941.1422234594,5081897.386601243,3596013.103173018,-156.01893618708309,-4939.410384610177,6906.586799030789,0.9950785271422589,-4.7269038115179176e-05,0.0004420274809722199,0.09908848166026624
1.52,-8.395112176095327e-06,0.0005169484461473856,-0.006857496323809377,-43.61346703508957,46.76723046253208,4.630505338370082,-1653941.9216344496,5081872.689548422,3596047.636525894,-155.74545992552362,-4939.410744005582,6906.754351268565,0.9950802302604019,-4.741629465134638e-05,0.00044338617367278816,0.09907137076522936
1.5250000000000001,-6.4631112451534324e-06,0.0005180417771211863,-0.006848306044001531,-43.60142601523393,46.7447175367659,4.631349200788112,-1653942.6996783586,5081847.992493845,3596082.170716316,-155.47210366591622,-4939.411086826879,6906.9218176416025,0.995081927993227,-4.757281744530086e-05,0.00044466929437341683,0.09905431130106244
1.53,1.331698966224809e-05,0.0005474428769844667,-0.006854590274631542,-43.573894187415334,46.71534209048294,4.615200891721602,-1653943.4763557364,5081823.2954376135,3596116.705743891,-155.19884746241914,-4939.41140539005,6907.089212399159,0.9950836231554879,-4.7724794508463136e-05,0.00044595561435309075,0.09903727466808153
1.5350000000000001,2.014412282341381e-05,0.0005365683978246401,-0.006858918032460559,-43.57305913722284,46.66804945632736,4.617454531892358,-1653944.2516672334,5081798.598379644,3596151.241608104,-154.92575127806225,-4939.411782473769,6907.256472734897,0.995085319549548,-4.783485093957397e-05,0.0004473199722520037,0.09902022234697018
1.54,4.499749400416348e-06,0.0005439208794080604,-0.006863235158910575,-43.54383125039145,46.65590897195256,4.605610736667925,-1653945.0256134886,5081773.9013200635,3596185.778308175,-154.6527508574876,-4939.412049741976,6907.423555586076,0.9950870167336953,-4.792523626295599e-05,0.0004486589669752939,0.09900315922402526
1.545,9.534764298789075e-06,0.0005366810801783572,-0.006839308782861191,-43.53133577824727,46.614957767103704,4.613784130463526,-1653945.798195098,5081749.204258935,3596220.3158435323,-154.37989286337657,-4939.412401671853,6907.590587497699,0.995088714681658,-4.805636499390715e-05,0.00045001237983994125,0.09898608534864678
1.55,2.337131373415439e-05,0.0005461807379356854,-0.006843788910918019,-43.516893168270954,46.58395517681456,4.6160568589254645,-1653946.5694127784,5081724.507196284,3596254.8542137356,-154.10717927137432,-4939.412658881958,6907.757493737059,0.9950904064236744,-4.81731494780287e-05,0.00045134903083104576,0.09896907096141976
1.555,-3.429319030868012e-06,0.0005389137198256597,-0.0068273023225646655,-43.49520709266358,46.56151664354915,4.610653317051713,-1653947.33926721,5081699.810132458,3596289.3934182194,-153.83459347036933,-4939.412871479042,6907.924299783678,0.9950920989721919,-4.825786788997646e-05,0.0004527127371715807,0.09895204538297064
1.56,1.401456137544308e-05,0.000516037062764039,-0.006827975944983121,-43.47822124675588,46.53479447461206,4.598408752542743,-1653948.107759051,5081675.113067519,3596323.9334565313,-153.5621428548158,-4939.413104200967,6908.091024880259,0.9950937871548174,-4.840744265753671e-05,0.0004540517370437623,0.09893506082083602
1.565,-4.229979619967423e-07,0.0005546061733799946,-0.00684250570941751,-43.47084203733818,46.49999363261614,4.589258590660662,-1653948.874888921,5081650.416001347,3596358.474328165,-153.28980513809444,-4939.413364551386,6908.257628616214,0.9950954752404777,-4.850796417437936e-05,0.00045533814018148443,0.09891807453687779
1.57,4.965842392414793e-06,0.0005594017899616382,-0.006823073799834058,-43.453599248129336,46.46434011934392,4.597261874961884,-1653949.6406573227,5081625.71893393,3596393.016032434,-153.01755555136666,-4939.413602112231,6908.424078988197,0.9950971665812665,-4.8653957047297115e-05,0.0004567169209531146,0.09890105208935825
1.575,-9.744440957733423e-06,0.0005628430420257418,-0.006829498922824679,-43.42828551346064,46.437936996725284,4.5892486763483555,-1653950.4050648664,5081601.021865506,3596427.5585687025,-152.74546196514976,-4939.413767459258,6908.590428554405,0.9950988528203507,-4.878770739801998e-05,0.0004581089666203185,0.09888407794764728
1.58,-2.757416105946729e-05,0.0005363947134110082,-0.006829696046655135,-43.41352650901196,46.39964193582979,4.5720175195757715,-1653951.1681123301,5081576.324796184,3596462.1019364656,-152.47352353400666,-4939.413961452451,6908.756676656643,0.9951005403502856,-4.895891127071863e-05,0.00045950593580248306,0.09886708780928906
1.585,4.974427561845032e-06,0.0005531386852153446,-0.00680866593107029,-43.39837098115687,46.36426727906672,4.590658513215606,-1653951.9298003945,5081551.627725852,3596496.646135009,-152.20170220586857,-4939.414171485936,6908.92274059449,0.9951022276651682,-4.9167934092714445e-05,0.00046083270102920327,0.09885009717524629
1.59,1.7908691344209896e-05,0.0005440792596246212,-0.006807418736993242,-43.379454167574345,46.329258225857394,4.578675190566541,-1653952.6901297516,5081526.930654763,3596531.1911636926,-151.93004062817047,-4939.414263776159,6909.088732851623,0.9951039094766304,-4.9300097597418115e-05,0.00046220916719312354,0.09883315879052108
1.595,2.046164993333031e-05,0.0005473745755595592,-0.006828696873729223,-43.36337437843521,46.317088479822836,4.58127793196936,-1653953.4491011424,5081502.233583185,3596565.737021955,-151.65851568219412,-4939.414367443984,6909.254572321953,0.995105590701856,-4.9397843876312214e-05,0.0004635662915368065,0.09881622346586941
1.6,2.646940095769672e-05,0.0005351397662047015,-0.006811336295954838,-43.352714882999344,46.28279340002447,4.563039336015748,-1653954.2067151633,5081477.536511087,3596600.283709362,-151.38709265499872,-4939.414471815745,6909.4203903100315,0.9951072768891704,-4.9490077718610656e-05,0.0004649322417697977,0.09879923517397608
1.605,8.719348370741106e-06,0.0005423724862799899,-0.006801874999150547,-43.334801486992944,46.25085965295675,4.569471024486648,-1653954.9629722945,5081452.839438415,3596634.831225423,-151.11575986431802,-4939.4145969967185,6909.586034221922,0.9951089585123118,-4.9564323501283285e-05,0.00046626924054818495,0.09878229003680404
1.61,6.704915289888032e-06,0.0005489043373527278,-0.006797942996998008,-43.30900590319664,46.21946292762075,4.565167040865525,-1653955.7178731377,5081428.142365257,3596669.37956948,-150.84457736370322,-4939.4146660048955,6909.751588515728,0.9951106374983479,-4.968450249322264e-05,0.00046761985024731397,0.09876536842819657
1.615,4.271956127138276e-06,0.0005660885489573782,-0.006787708344683944,-43.29104408622597,46.185980537683434,4.569207331542169,-1653956.4714184955,5081403.445291746,3596703.928741031,-150.5735657853003,-4939.414738465423,6909.917031728083,0.9951123152162024,-4.981130113516631e-05,0.00046898621269448134,0.09874845657434937
1.62,-1.4552271312801068e-05,0.0005292286622801617,-0.006795000845863816,-43.288636248528505,46.14873021975992,4.554321222732449,-1653957.2236091709,5081378.748217998,3596738.478739541,-150.30270437611878,-4939.4147606883125,6910.082372347172,0.9951139900980508,-4.9948382717865256e-05,0.00047039472620407025,0.09873157015411621
1.625,-1.5432010043133226e-05,0.0005424306443185768,-0.006789177094073062,-43.25533155346446,46.125501157156116,4.556038152763302,-1653957.974445696,5081354.05114418,3596773.0295642954,-150.03190565457925,-4939.414766792998,6910.24752948946,0.9951156665321701,-5.012320540593523e-05,0.000471706892830465,0.09871466558980169
1.6300000000000001,1.4688437885643692e-05,0.0005308492817716104,-0.006808130154562894,-43.24677454534423,46.09455298985934,4.545031080042545,-1653958.7239287219,5081329.354070296,3596807.5812146985,-149.76130473181726,-4939.414786773187,6910.412631628793,0.9951173412246792,-5.030346788929077e-05,0.0004730516866898705,0.09869777548449742
1.635,-4.5156487115881905e-06,0.0005447405594137778,-0.0067742110249563075,-43.22136904106458,46.064459917001635,4.5522593290892575,-1653959.4720589535,5081304.656996323,3596842.1336902566,-149.49078784359838,-4939.414802447492,6910.577591711021,0.9951190203219666,-5.040596168552016e-05,0.0004743750980445088,0.09868083816504014
1.6400000000000001,-3.6385289030476307e-06,0.000543883662787975,-0.006775186311469998,-43.20542655038069,46.02682643959349,4.545608854267265,-1653960.2188370544,5081279.9599223705,3596876.6869904306,-149.2204525920686,-4939.414778313439,6910.742477908302,0.9951206907437948,-5.05596181280547e-05,0.0004757283345339563,0.0986639852219113
1.645,3.460594271785981e-05,0.0005288167423190328,-0.006772423556261279,-43.19243846182485,45.99366287141056,4.539598257449148,-1653960.9642638161,5081255.262848594,3596911.2411146583,-148.9502520340648,-4939.41473233855,6910.907213032743,0.9951223611200206,-5.071088225366293e-05,0.0004770796553242166,0.09864712982304333
1.6500000000000001,1.0247495057538134e-05,0.0005273451798818382,-0.006746386155715613,-43.16645681271688,45.963592410131696,4.547331871715357,-1653961.7083398604,5081230.565775097,3596945.7960622273,-148.6801657522529,-4939.414666264175,6911.071814639465,0.9951240305505482,-5.076328247608494e-05,0.0004784029245217731,0.09863028122520252
1.655,5.115900798544054e-06,0.0005598984929246815,-0.0067754103347300075,-43.14777356763011,45.932721803691116,4.5363118001751115,-1653962.4510659357,5081205.868702034,3596980.3518326245,-148.41026426656347,-4939.414559544092,6911.236344280676,0.9951256932736474,-5.087588788300469e-05,0.0004797165297170227,0.09861349740445155
1.6600000000000001,8.015067773044325e-06,0.0005366824333713884,-0.006779558231162191,-43.127532547161096,45.90443762537877,4.52288130228642,-1653963.1924428265,5081181.171629461,3597014.908425336,-148.14049208275142,-4939.414469327972,6911.400740284959,0.9951273628263577,-5.1009320027103083e-05,0.00048110985256713795,0.0985966413505938
1.665,-2.0328090880396476e-05,0.000555019279835123,-0.006763011447201316,-43.11496624245867,45.874033209771675,4.53393008654912,-1653963.932471178,5081156.474557252,3597049.465839706,-147.87084851780608,-4939.414414252237,6911.565007727458,0.9951290331422218,-5.1129821980746704e-05,0.00048244613202929514,0.09857977494850506
1.67,6.3958281034909435e-06,0.0005341982810968177,-0.006758182236154412,-43.093420309260885,45.83174890872658,4.517458950188482,-1653964.671151635,5081131.777485523,3597084.024075226,-147.60133432188073,-4939.414277327215,6911.729200216391,0.9951306990673768,-5.132533581796862e-05,0.00048382104713261243,0.0985629497152871
1.675,-8.612581592929452e-06,0.0005318392411492525,-0.006749884431042189,-43.07563528096822,45.801377050161875,4.524067416222823,-1653965.40848491,5081107.080414435,3597118.583131226,-147.33197558796167,-4939.414157927836,6911.893199747303,0.9951323635450755,-5.144922887117308e-05,0.0004851507486496109,0.09854613643831875
1.68,1.7927170805962056e-05,0.000528681723022981,-0.006755120421340023,-43.061604264187906,45.77087437285797,4.522252746573908,-1653966.1444717585,5081082.383344078,3597153.143007016,-147.0627638701601,-4939.413984868815,6912.057116229276,0.9951340256939276,-5.160986904525337e-05,0.0004864708846502473,0.098529343795122
1.685,-8.654730552676719e-06,0.0005338146354870463,-0.006756264656174631,-43.039757212995106,45.740595245246,4.513746312996528,-1653966.8791128474,5081057.686274657,3597187.7037021127,-146.79367169287426,-4939.4137833803825,6912.220922506141,0.9951356888544506,-5.1703711275347387e-05,0.0004877897018124828,0.09851253806552351
1.69,2.4412373307466012e-06,0.0005235264865575141,-0.006757062537012169,-43.021253521736185,45.710378149062414,4.515291748362046,-1653967.6124088396,5081032.989206208,3597222.2652159366,-146.52472517298202,-4939.413596268655,6912.384607114243,0.9951373520014667,-5.186495052334707e-05,0.0004891147419213427,0.09849572949273101
1.695,-1.3748346830398619e-05,0.0005297756980832877,-0.006737070358966741,-43.00256848562178,45.671398084929,4.505724177669304,-1653968.3443604577,5081008.292138775,3597256.8275479437,-146.25592208772213,-4939.413377263139,6912.548195692722,0.9951390150732918,-5.1996052355018915e-05,0.0004904169187467564,0.0984789188944262
1.7,5.830814008448557e-06,0.0005221961085172439,-0.006722156883543266,-42.98839445309354,45.638810115520336,4.502606637168021,-1653969.0749684244,5080983.595072456,3597291.390697487,-145.98726455309864,-4939.413150317673,6912.711621681566,0.9951406729284692,-5.216894541662713e-05,0.0004917306592842159,0.09846215802445919
1.705,9.303154737169842e-06,0.0005291684743703478,-0.0067491131984686046,-42.96755694457326,45.597486555030805,4.501701467454062,-1653969.8042334088,5080958.898007341,3597325.954663855,-145.71872919616249,-4939.41289553004,6912.874925416924,0.9951423268410907,-5.229124432475133e-05,0.0004930303642481106,0.09844543420588658
1.71,-2.464012345858943e-05,0.0005440966736157476,-0.006728420834711756,-42.9533252188442,45.569518274677804,4.492318576699311,-1653970.5321561424,5080934.200943608,3597360.519446376,-145.45036432321191,-4939.412597609067,6913.038082955396,0.9951439870959897,-5.2406653754542735e-05,0.0004943482663785762,0.09842864329061284
1.715,8.73731521195565e-06,0.0005391608254182302,-0.006750038533107109,-42.93244937000073,45.5394625822461,4.487929251396811,-1653971.2587373173,5080909.5038813455,3597395.085044382,-145.1821056142845,-4939.412307275124,6913.201119554123,0.9951456419519545,-5.2610157125269704e-05,0.0004956949578711267,0.0984119038669228
1.72,-1.2620639730087007e-05,0.0005422725335194596,-0.006709754810290517,-42.90723883030955,45.512636814482974,4.497359489168704,-1653971.983977564,5080884.8068205435,3597429.651457296,-144.9139930250504,-4939.412013588815,6913.364046032929,0.9951473018527159,-5.272943437330259e-05,0.0004970375785024404,0.09839511059250787
1.725,-1.3219938700996372e-05,0.0005374031215238837,-0.0067258058526557815,-42.890201448307785,45.471482680604126,4.483416039419601,-1653972.7078776916,5080860.109761314,3597464.2186847054,-144.64605806594145,-4939.411678370947,6913.5269177085565,0.9951489515539718,-5.2902562770240696e-05,0.0004983826920264484,0.09837841753678409
1.73,7.430332409487119e-06,0.000533570311564574,-0.0067305413905701566,-42.88193774906474,45.4415056050322,4.476380562079943,-1653973.4304384852,5080835.412703758,3597498.7867260105,-144.3782594164977,-4939.411343991353,6913.689604293642,0.9951506049264065,-5.307600451780401e-05,0.0004997155414153084,0.09836168452157878
1.735,-5.825350163418145e-06,0.000536516287077478,-0.006709042310704268,-42.862459064900264,45.41045472376546,4.480647190966807,-1653974.1516605006,5080810.71564792,3597533.3555804295,-144.11054666011643,-4939.4109911123205,6913.852163453765,0.9951522591875192,-5.3197134337734146e-05,0.0005010439324642881,0.09834493967164479
1.74,3.847319713368269e-06,0.0005105808800270761,-0.006700768452333419,-42.84273054948106,45.37955967748979,4.469649355861363,-1653974.8715443336,5080786.018593953,3597567.9252474173,-143.8429866225226,-4939.410595582888,6914.01463151125,0.9951539078747285,-5.335194007320581e-05,0.0005023763963923991,0.09832824829713678
1.745,8.149233512351378e-06,0.000529361510189817,-0.0067234544833001415,-42.81662780747212,45.33636631751759,4.478233787741593,-1653975.5900907016,5080761.321541918,3597602.495726412,-143.57556050346236,-4939.410218400191,6914.176966574156,0.9951555542805983,-5.347629545618888e-05,0.0005036467147195805,0.09831157747054972
1.75,-2.0677562185997416e-05,0.0005263070528698118,-0.006688546316906723,-42.79584444241548,45.31004874641513,4.475944043570373,-1653976.3073004626,5080736.624491955,3597637.0670167753,-143.3083439596121,-4939.409767049908,6914.339178542314,0.995157205957248,-5.3594592588300406e-05,0.0005049648113120572,0.09829485016786232
1.7550000000000001,2.4585208803279997e-07,0.0005162227203154412,-0.006684536651329851,-42.77628576579365,45.27155302782322,4.471482225231968,-1653977.0231744954,5080711.927444256,3597671.639117975,-143.0412691266345,-4939.409312430321,6914.501301333005,0.9951588487742185,-5.3783813026867506e-05,0.0005062682294620072,0.09827820972196001
1.76,1.7164346633602756e-05,0.0005192025578931392,-0.006666941172945801,-42.75727522213777,45.236272797314946,4.464423969898642,-1653977.7377135416,5080687.230398893,3597706.212029424,-142.77434931776114,-4939.408832514733,6914.663278314644,0.9951604903418336,-5.391849539789126e-05,0.0005075517000160637,0.09826157919893738
1.7650000000000001,-1.7047945859077593e-05,0.0005353190857707238,-0.006686405431869533,-42.7437350419707,45.202538377338115,4.461594497525352,-1653978.4509183473,5080662.533355953,3597740.785750407,-142.5075730088378,-4939.408343806088,6914.82511484705,0.9951621273066947,-5.4011795892785726e-05,0.0005088467424362503,0.09824499240232383
1.77,3.7211111566733692e-06,0.0005318234821786736,-0.006667141033422162,-42.72557249364866,45.177635462015644,4.447044980273287,-1653979.1627895755,5080637.836315539,3597775.3602802553,-142.24091829647506,-4939.407822008289,6914.986824607936,0.9951637687481026,-5.4194196498181756e-05,0.000510173475514908,0.09822835719427957
1.7750000000000001,6.453990376264033e-06,0.0005225043820650743,-0.006675177836614088,-42.70375257453128,45.141857949438666,4.443356606157625,-1653979.8733278094,5080613.139277626,3597809.935618353,-141.9743751887282,-4939.4073431214,6915.148414458724,0.9951654051869618,-5.4324042566806075e-05,0.0005114966145913232,0.09821176986075433
1.78,-4.429549837895057e-07,0.000513361031055526,-0.006663913891939926,-42.68629363611229,45.11028109240354,4.4467015497464,-1653980.5825337307,5080588.442242151,3597844.5117640733,-141.7079933925032,-4939.406846692158,6915.309873503757,0.9951670433328442,-5.4444811616792215e-05,0.0005127972383202592,0.09819516250264043
1.7850000000000001,-2.448884157067475e-05,0.0005167836312254308,-0.006657485119081262,-42.667074598612245,45.06456227557569,4.44059889892707,-1653981.2904081014,5080563.74520927,3597879.088716844,-141.4417548849312,-4939.406305806658,6915.471234966045,0.9951686784460042,-5.458048066095972e-05,0.0005140734224182758,0.09817858315091445
1.79,8.283233214418733e-06,0.0004970605863424063,-0.006659386095794102,-42.64020568550759,45.03918169291333,4.433543665681003,-1653981.99695169,5080539.048179183,3597913.6664759726,-141.17568053372844,-4939.405728664561,6915.63241632415,0.9951703116959718,-5.477680577577369e-05,0.0005153522204336413,0.09816201979652228
1.795,1.1667179863325162e-05,0.0005191986655785178,-0.006664320589774841,-42.62089301106255,45.002615020367486,4.429485607941384,-1653982.7021653096,5080514.351151908,3597948.2450407725,-140.90976733755883,-4939.405181522239,6915.7935037419875,0.9951719451649923,-5.488675870000393e-05,0.0005165899910058807,0.0981454516457613
1.8,1.715513665675351e-05,0.0005169005091930785,-0.006655880580485641,-42.61716602537711,44.971995273226284,4.435956546639972,-1653983.4060497407,5080489.6541274255,3597982.824410667,-140.644005064899,-4939.40461134758,6915.9544540290135,0.9951735795389868,-5.4993730839238066e-05,0.0005178836690427668,0.09812887118353565
1.805,-1.1386185943203288e-05,0.000526301662312735,-0.006656384949988232,-42.587281575768806,44.93268427665422,4.432347830928505,-1653984.10860557,5080464.957106001,3598017.404585073,-140.37832665712097,-4939.403958569607,6916.115308249524,0.9951752115686262,-5.5086474573030166e-05,0.0005191729767518014,0.09811231168533711
1.81,1.2560168692588781e-05,0.0005205297066256113,-0.006661254475437675,-42.56715685589902,44.89846017236481,4.434272508009598,-1653984.8098335168,5080440.2600878645,3598051.9855634035,-140.1128521215753,-4939.403296171611,6916.276023966229,0.9951768434285867,-5.5252533910165664e-05,0.0005204786730952474,0.09809575094071425
1.815,-4.38919512588264e-06,0.0005271152618477943,-0.0066439825013732395,-42.54841252791575,44.86488740933365,4.42128111209244,-1653985.5097344865,5080415.563073139,3598086.5673450367,-139.8475356673396,-4939.402594196745,6916.436629445201,0.9951784762160721,-5.535760691324356e-05,0.0005217758809184283,0.09807917802327952
1.82,3.3063089026563323e-06,0.0005139796203485117,-0.00663573877157027,-42.52744814724964,44.8340118608926,4.409192404286123,-1653986.2083092025,5080390.866061877,3598121.149929322,-139.58235075913333,-4939.401910084284,6916.597084510216,0.9951801044805866,-5.550644124040964e-05,0.0005230853195445737,0.09806264807148707
