t_s,gyro_x_radps,gyro_y_radps,gyro_z_radps,accel_x_mps2,accel_y_mps2,accel_z_mps2,ins_pos_ecef_x_m,ins_pos_ecef_y_m,ins_pos_ecef_z_m,ins_vel_ecef_x_mps,ins_vel_ecef_y_mps,ins_vel_ecef_z_mps,ins_quat_w,ins_quat_x,ins_quat_y,ins_quat_z
0.0,9.835901466873832e-06,0.0005985516176795792,-0.007403584440060464,-45.304812687159306,51.863904386775694,5.147435126384771,-1658763.5840503734,5105149.374697655,3596773.925093057,-242.6143302865707,-4938.608152381165,6852.28340073394,0.9945218953682734,0.0,0.0,0.10452846326765354
0.005,-7.624864182656421e-06,0.0006018694259136112,-0.007396267036586809,-45.30685033961256,51.866188100811634,5.131580713008066,-1658764.7963942613,5105124.681645825,3596808.1869741473,-242.32322483715322,-4938.612579986108,6852.469035271714,0.9945238299100675,-1.3195915352451332e-07,1.4907520523034099e-06,0.10451005568255815
0.01,6.195592706331809e-06,0.0006032882597619511,-0.007387951747355173,-45.317145329756634,51.873522267597764,5.1346700972968105,-1658766.007282552,5105099.988571678,3596842.44978334,-242.03209153591564,-4938.617078367546,6852.65464183783,0.9945257621973792,-3.081980093559259e-07,2.9851911409109715e-06,0.10449166625485388
0.015,1.10803062345351e-06,0.0006161242701292295,-0.0074104642631895885,-45.3159746580181,51.858175353517325,5.1359782686163165,-1658767.216715052,5105075.295475065,3596876.7135206615,-241.74090845335394,-4938.621567323437,6852.840286746089,0.9945276919705864,-4.5044544275466755e-07,4.486768208356969e-06,0.1044732974655455
0.02,1.0966481111541344e-05,0.0005857007469780121,-0.007382904772877282,-45.31997256446694,51.85890833639811,5.138171966379638,-1658768.4246917386,5105050.602356082,3596910.9781860854,-241.44976616386126,-4938.626025805477,6853.025882930806,0.9945296272809199,-6.086949827800872e-07,6.01893088234802e-06,0.10445487266698757
0.025,-1.3732163006311718e-05,0.0006228293121871621,-0.0074032724549907905,-45.32989791611018,51.86408992837797,5.139601259212836,-1658769.6312126871,5105025.909214826,3596945.243779527,-241.15861322684307,-4938.630476334546,6853.211493645778,0.9945315550525982,-7.344880920857563e-07,7.47802526633617e-06,0.1044365163541979
0.03,5.053528322232338e-06,0.0006209882939787166,-0.0074115698267063525,-45.33115025101904,51.86171232198017,5.144157955961644,-1658770.8362777552,5105001.216051335,3596979.510301085,-240.86741397217222,-4938.634919821092,6853.397129643807,0.9945334877993451,-9.313844792855197e-07,9.022984833707382e-06,0.10441810936513
0.035,6.135875089992117e-06,0.0006099797939208676,-0.007390025544253232,-45.3386905317591,51.85026405558059,5.13014560063796,-1658772.0398868527,5104976.522865674,3597013.7777508507,-240.57622506910744,-4938.639344617418,6853.582776519992,0.9945354223687,-1.0810929664409952e-06,1.0568270908921379e-05,0.10439968170954624
0.04,-2.9181047539775038e-05,0.000625461064797288,-0.0074119924771531495,-45.33753656968667,51.84008667318206,5.135026315010535,-1658773.2420399436,5104951.829657838,3597048.0461286423,-240.28501124473374,-4938.643790257312,6853.768340183382,0.9945373509724991,-1.2252365937553497e-06,1.2086468672231387e-05,0.10438130758435797
0.045,6.101897511342891e-06,0.0006095705240727342,-0.007388359935862673,-45.34482619216528,51.83100921523499,5.135771996791143,-1658774.4427370548,5104927.136427854,3597082.315434208,-239.9938332309678,-4938.648203083573,6853.953886064116,0.9945392849652162,-1.4612307693321322e-06,1.3633942052993786e-05,0.10436287880686773
0.05,3.1984482014466947e-06,0.0006107375437131511,-0.007407542019308869,-45.35125484329367,51.83570182627443,5.14213587149541,-1658775.6419782527,5104902.443175885,3597116.5856674225,-239.7026459594316,-4938.65258452884,6854.139399807945,0.9945412124499322,-1.605352495101883e-06,1.5151111672162156e-05,0.1043445087509906
0.055,1.5592560379438456e-05,0.0006090592962241983,-0.007385987845943456,-45.34803958095517,51.83669912532565,5.137791978867967,-1658776.8397634558,5104877.74990206,3597150.8568283063,-239.41143523509902,-4938.656945574565,6854.324953686478,0.994543144595947,-1.75699837711228e-06,1.6670425434467675e-05,0.10432609096585249
0.06,1.1644027034203788e-07,0.0006290974890200956,-0.007373288583093051,-45.35645036682167,51.82072086899992,5.143172051402934,-1658778.0360926369,5104853.056606346,3597185.1289169686,-239.12023725688675,-4938.661339928935,6854.510511094162,0.9945450707780309,-1.8773894494758e-06,1.818879913505982e-05,0.10430772673567652
0.065,5.7378264927951245e-06,0.0006181212946357955,-0.007383704466919975,-45.361659647708116,51.827987882965424,5.143865758569561,-1658779.230965839,5104828.36328883,3597219.401933297,-238.82904356971343,-4938.665666518662,6854.69602036663,0.9945469933066565,-2.0414845370016716e-06,1.9752959406431768e-05,0.10428939404533019
0.07,-1.1174703449611685e-05,0.0005874015284197963,-0.007402733592001964,-45.36476144153004,51.8156526297026,5.132325590203103,-1658780.4243829977,5104803.669949655,3597253.6758772614,-238.5378198986091,-4938.670003426233,6854.881565403872,0.9945489182106924,-2.1887415546208905e-06,2.129129439247625e-05,0.10427103542130806
0.075,6.617116525840414e-06,0.00059466830996403,-0.007377826831178488,-45.36755587687134,51.814267508453945,5.139802396897976,-1658781.6163440372,5104778.97658875,3597287.9507487607,-238.24659590526204,-4938.674358534741,6855.067034333427,0.9945508477347156,-2.3700424756919677e-06,2.274883977391179e-05,0.10425262944900643
0.08,1.2932461799171553e-06,0.0006133447915874702,-0.007406588994920028,-45.37449834134935,51.80578015887743,5.139218861575192,-1658782.80684897,5104754.283206147,3597322.226547659,-237.95537726548977,-4938.678682548177,6855.252524985659,0.9945527704252782,-2.5089987580659936e-06,2.422909036450705e-05,0.1042342853674355
0.085,-2.0244259071174157e-07,0.0006124356564361048,-0.007395203287597596,-45.381059143008514,51.80716000080559,5.138548860117413,-1658783.9958977834,5104729.589801985,3597356.5032739276,-237.6641480958867,-4938.682982433214,6855.437982446991,0.9945547002677463,-2.6660607810692557e-06,2.57543903081572e-05,0.10421586973650886
0.09,-6.2667588590269626e-06,0.000623291046196189,-0.007405287085428094,-45.38066234513273,51.795366955685395,5.1480508544772325,-1658785.1834903837,5104704.896376325,3597390.780927501,-237.37289194970504,-4938.687281845789,6855.623446859694,0.9945566268010304,-2.8266040650412683e-06,2.7277040170957886e-05,0.10419748237903517
0.095,-1.6949396574793468e-05,0.0006074022918829864,-0.007384957906945665,-45.375347540933674,51.79185717311091,5.136644467798312,-1658786.3696268061,5104680.202929308,3597425.059508366,-237.08167708743062,-4938.691524980907,6855.808899210203,0.9945585556175143,-3.005054061214548e-06,2.8825100986435644e-05,0.10417906991371585
0.1,-1.2464068700901194e-05,0.0005951058342792145,-0.007393151697999676,-45.384102068485355,51.79345535574303,5.136922596557842,-1658787.554307208,5104655.509460936,3597459.3390164115,-236.79048356197492,-4938.695823310475,6855.994318866263,0.9945604787980808,-3.2059256741025285e-06,3.0330873935216976e-05,0.10416070795982663
0.105,1.4573445615239593e-05,0.000621882403266244,-0.007404334868396407,-45.39580830348483,51.78322025503749,5.141149125092235,-1658788.7375315519,5104630.815971095,3597493.6194515764,-236.49925403528798,-4938.700113405518,6856.179747088685,0.9945624037716625,-3.3924435632830027e-06,3.180724086832164e-05,0.10414232559686483
0.11,5.413493783112429e-06,0.0006139525847344975,-0.007391660279826246,-45.39848488712533,51.78605222814174,5.130760698021956,-1658789.919299692,5104606.122459944,3597527.900813805,-236.20800202432105,-4938.7043466318555,6856.365144402711,0.9945643313123702,-3.518707537900863e-06,3.3357224491709475e-05,0.104123915389752
0.115,-1.551663235451401e-05,0.0006015737241267498,-0.00738324419882097,-45.39603437031327,51.7792803468893,5.135965311532604,-1658791.0996115103,5104581.428927505,3597562.183102993,-235.9167253049778,-4938.708629000699,6856.550530736093,0.9945662552117592,-3.6656816483715584e-06,3.488510700331673e-05,0.10410553666184132
0.12,-1.087355603587386e-05,0.0006148805058034058,-0.007392743225678568,-45.39453980516693,51.7626245375942,5.132595020666205,-1658792.2784670345,5104556.735373714,3597596.4663191075,-235.62548434996367,-4938.7128877089535,6856.735915115864,0.9945681765801003,-3.861474246709115e-06,3.637676323244256e-05,0.10408717882599504
0.125,-1.2369929997578837e-06,0.0006171171681854431,-0.0074116308845705746,-45.39523005457173,51.77030417006515,5.124370577695366,-1658793.4558664502,5104532.041798664,3597630.750461977,-235.33428196169558,-4938.717132060265,6856.921232631007,0.9945701000775048,-4.04918573112921e-06,3.790271382312858e-05,0.10406879733527437
0.13,6.5622931541171465e-06,0.0005923920258503082,-0.00736580438347785,-45.393016252021354,51.767419006739594,5.135004544841243,-1658794.6318097992,5104507.348202254,3597665.0355314747,-235.0430576307865,-4938.721432201144,6857.106566545496,0.9945720281458824,-4.213520327124006e-06,3.943673266718441e-05,0.10405036884498042
0.135,1.2111955151178427e-05,0.0006144839902324447,-0.0073985928865069285,-45.40057143958748,51.75966344845416,5.140967902473055,-1658795.806297113,5104482.654584434,3597699.3215277144,-234.75186786075076,-4938.725695680525,6857.291929263535,0.9945739439544862,-4.352026373490178e-06,4.0911303439531e-05,0.10403205426282729
0.14,-2.8495227740035656e-05,0.0006210493116822455,-0.007387363965144308,-45.41339422048179,51.7459256256633,5.133644680590267,-1658796.9793284622,5104457.960945421,3597733.6084507364,-234.46067183447713,-4938.729909614829,6857.477279531941,0.9945758679475053,-4.482482579959778e-06,4.2442247428312754e-05,0.10401365811771827
0.145,-1.3321254824034868e-05,0.000600060749186917,-0.007407213533079368,-45.413587779541636,51.74527241505788,5.134719517054935,-1658798.1509037416,5104433.267285392,3597767.8963003135,-234.16943993801132,-4938.734101877793,6857.662551480552,0.9945777886773464,-4.7156121116058045e-06,4.3978956549930456e-05,0.10399528986110029
0.15,-5.495593695548064e-07,0.0005993266925735915,-0.007401188601676246,-45.41567473219716,51.74382028340325,5.133024204033384,-1658799.32102288,5104408.573604399,3597802.1850762735,-233.87821547108217,-4938.738295290744,6857.847832451164,0.9945797142278614,-4.905557803863582e-06,4.546742358149436e-05,0.10397687221240393
0.155,-1.5424135029370155e-05,0.0006056518570278988,-0.007386723006359307,-45.41781305808591,51.73504236441258,5.136833412062034,-1658800.4896858884,5104383.879902423,3597836.4747786294,-233.58698788705138,-4938.742495068669,6858.033109853522,0.9945816378694651,-5.0635558242688575e-06,4.6957385379090217e-05,0.1039584695070909
0.16,8.354245595239936e-06,0.0006130232685573634,-0.0073764004245678114,-45.41841194135405,51.7279004344714,5.1311847469117255,-1658801.6568928016,5104359.186179529,3597870.765407327,-233.29577740547907,-4938.746662668308,6858.218369324963,0.9945835574084877,-5.2601809803826786e-06,4.845920872941181e-05,0.10394010273572499
0.165,1.6777011268979977e-05,0.000613500518327103,-0.0073802889698245,-45.4296024817634,51.72079666262069,5.130201142288023,-1658802.8226436847,5104334.492435766,3597905.0569622316,-233.0045757865755,-4938.750842275912,6858.403592353005,0.9945854739235933,-5.399596381391214e-06,4.998553972891588e-05,0.103921761592419
0.17,-5.16331693730216e-06,0.0005863395951244006,-0.007383842176857168,-45.42941294898248,51.71942642197745,5.123339017039437,-1658803.986938478,5104309.798671177,3597939.3494431702,-232.71334155509078,-4938.754993706805,6858.588783070518,0.9945873911082677,-5.518193357008567e-06,5.1515245594653796e-05,0.10390341074372371
0.17500000000000002,3.2667268570897383e-07,0.0005971165167884523,-0.007380910669665486,-45.42876707774244,51.720756083274125,5.132309415678337,-1658805.149777101,5104285.10488575,3597973.6428500228,-232.42210761259,-4938.759176678375,6858.773958053464,0.9945893088781241,-5.684289441428121e-06,5.297171742700968e-05,0.10388505102766875
0.18,-4.540380599573524e-07,0.0006143021381583036,-0.007389860138280224,-45.43084941490851,51.71263151118712,5.1354476737346415,-1658806.3111595984,5104260.411079469,3598007.93718285,-232.13089133631897,-4938.763335930544,6858.959172883474,0.9945912255443266,-5.839533325853055e-06,5.4456411630171695e-05,0.10386669856423499
0.185,3.349976864532733e-06,0.000592018090881196,-0.007392830954952389,-45.42798898592059,51.69168506129696,5.125455151716881,-1658807.4710860525,5104235.717252461,3598042.232441709,-231.83969033308256,-4938.7674672323465,6859.144370580649,0.9945931441907204,-6.001182181208408e-06,5.59836346299183e-05,0.1038483238123529
0.19,-1.1022979348661873e-05,0.0006091397481028691,-0.007369605109222939,-45.43253830403571,51.689481840169414,5.124253738693253,-1658808.6295566116,5104211.023404785,3598076.528626302,-231.54853333617194,-4938.771603263584,6859.329466679615,0.99459506326971,-6.147587429992394e-06,5.745643626567083e-05,0.10382994163769284
0.195,-1.318562224376829e-05,0.0006232359070250724,-0.007385097141302082,-45.44180438472433,51.68327083569205,5.124139892384557,-1658809.7865713555,5104186.329536434,3598110.8257363574,-231.25736419320606,-4938.775736893047,6859.514555427093,0.9945969759762555,-6.334171870394167e-06,5.896808017004246e-05,0.10381161718002302
0.2,6.158334517352359e-06,0.0006149523571147458,-0.007397802174009289,-45.435573901260575,51.67961437741721,5.120366528903938,-1658810.9421301922,5104161.63564748,3598145.1237717946,-230.96617050102194,-4938.779844938706,6859.699619549991,0.9945988923606389,-6.529794350314932e-06,6.051421253284003e-05,0.10379325416606927
0.20500000000000002,-1.2363738394741352e-05,0.0006045731496204762,-0.007367075375163619,-45.444277841362066,51.6764100840083,5.1347740387433065,-1658812.096233149,5104136.941737919,3598179.4227325246,-230.6750122519641,-4938.783979608191,6859.884672462145,0.994600811701334,-6.675170613649472e-06,6.20447670740652e-05,0.10377485952260572
0.21,-7.663564199852398e-06,0.0006070232252478159,-0.0073907735069766,-45.44781925012805,51.67024700992213,5.126393332010868,-1658813.2488802925,5104112.247807871,3598213.722618591,-230.38384511000862,-4938.788039478721,6860.069754077114,0.9946027227305551,-6.863904528476206e-06,6.35447088724993e-05,0.10375654124884603
0.215,1.6500324871683631e-06,0.0006014274001802442,-0.007390023676871645,-45.44659699599023,51.65394948242247,5.126948455973933,-1658814.4000715762,5104087.553857476,3598248.023429959,-230.092668341143,-4938.792118265685,6860.254793040581,0.9946046395658086,-7.041590718988906e-06,6.505196155677573e-05,0.1037381640131848
0.22,2.291352128102933e-05,0.0006014052413237873,-0.007383409164769014,-45.45405338007731,51.65929294484387,5.128317365680754,-1658815.54980708,5104062.859886763,3598282.3251663847,-229.80153324220865,-4938.796167441739,6860.439777337874,0.9946065558658806,-7.19466716739698e-06,6.654771558651437e-05,0.10371978860491957
0.225,6.7112102602945995e-06,0.0006100819708173463,-0.007375935706903623,-45.452996199314825,51.640429651068246,5.123022998726303,-1658816.6980868194,5104038.165895806,3598316.627827802,-229.51036249126992,-4938.800215312588,6860.624789600767,0.9946084701097662,-7.294864753722089e-06,6.804892822542797e-05,0.10370142960460448
0.23,-6.906194367834248e-06,0.0005997185350942698,-0.0073933965835869045,-45.449713605992855,51.63206314418873,5.127858303815835,-1658817.8449108002,5104013.471884641,3598350.931414077,-229.21922985847272,-4938.8042503940305,6860.809720299423,0.9946103820735394,-7.437597928713713e-06,6.95675153418958e-05,0.10368308915426362
0.23500000000000001,-1.60990126128801e-06,0.0006357764647469804,-0.007415098002846476,-45.45403734693829,51.63418457844173,5.131355438306794,-1658818.9902792228,5103988.777853362,3598385.2359249834,-228.92813910041227,-4938.808261307232,6860.994642219978,0.9946122982235842,-7.611507885401624e-06,7.105680342147179e-05,0.10366470525398491
0.24,1.0716040901845234e-06,0.0006109806950359381,-0.0073813697035126765,-45.467330026263404,51.618655661881895,5.119730338756011,-1658820.1341921587,5103964.083802055,3598419.541360558,-228.63703531631975,-4938.812261639998,6861.179587665032,0.9946142196483305,-7.781597135521743e-06,7.263712281093654e-05,0.10364626735506552
0.245,2.342086837442684e-05,0.0006047348723894029,-0.007380710681233845,-45.4596508276103,51.612330885255346,5.127263132312833,-1658821.276649475,5103939.38973077,3598453.847720615,-228.34589125210752,-4938.816252206203,6861.364435150882,0.9946161319954382,-7.93858762732467e-06,7.415648208872734e-05,0.10362791328704878
0.25,-3.3716098702582367e-06,0.0005891051277157345,-0.007395504079300696,-45.464161234241274,51.611827707388336,5.11780740631943,-1658822.4176512244,5103914.695639585,3598488.1550049363,-228.0548084619046,-4938.82022170061,6861.549293439476,0.9946180438324507,-8.038387543325586e-06,7.566610088332623e-05,0.10360956081817348
0.255,-5.673626232211839e-06,0.0006190959863253532,-0.007362786755888768,-45.45779179076456,51.60829877432053,5.121606859343061,-1658823.5571974956,5103890.001528468,3598522.463213491,-227.76370000288395,-4938.824225247001,6861.734128239825,0.9946199591621928,-8.20076248326655e-06,7.712991539721198e-05,0.10359117153465137
0.26,-1.7014827626532794e-05,0.0006354294001569545,-0.007381427721178931,-45.46116718821955,51.596908630764986,5.116312497379363,-1658824.6952883382,5103865.3073973395,3598556.772346245,-227.47263706738806,-4938.828226159701,6861.918973621483,0.9946218656722756,-8.376622160671317e-06,7.866770815042293e-05,0.10357286356872437
0.265,-1.46355909213535e-05,0.0006062685648439964,-0.0073784244381299175,-45.4646807462735,51.5866120565474,5.11549262184445,-1658825.8319238778,5103840.613246218,3598591.0824030894,-227.18157872735688,-4938.832222196337,6862.103763930449,0.9946237766653583,-8.584915264643133e-06,8.02431778109287e-05,0.10355450921747054
0.27,-3.915348086599777e-06,0.0005839417740983124,-0.0073779795102139265,-45.46147129097611,51.572561869743815,5.126248781122361,-1658826.9671041449,5103815.919075168,3598625.393383789,-226.89052811565355,-4938.836197948125,6862.288516020869,0.9946256865458685,-8.779742309727324e-06,8.174675330973676e-05,0.10353616229870789
0.275,6.287193654069628e-06,0.0005908720362511587,-0.007390236884871176,-45.469342325908826,51.56850574370262,5.116411876667213,-1658828.1008293077,5103791.224884391,3598659.705288211,-226.59953698880082,-4938.840113078951,6862.473252750437,0.9946275959754003,-8.94213361308052e-06,8.31975866233898e-05,0.10351781644913015
0.28,-3.611347717879097e-06,0.0006056557472284099,-0.007366019543068905,-45.476721028701505,51.56395564730599,5.114254145986274,-1658829.233099428,5103766.530673986,3598694.018116212,-226.30851112011038,-4938.844048768221,6862.657947614388,0.9946295082347643,-9.080951652930671e-06,8.466829257156148e-05,0.1034994400829674
0.28500000000000003,3.291011280675897e-06,0.0006169284737859224,-0.007354273708260645,-45.471558597519774,51.546366069516246,5.113173696702536,-1658830.3639143645,5103741.836443927,3598728.3318676325,-226.0174634700628,-4938.847974627456,6862.84262052755,0.9946314138839418,-9.24820328143105e-06,8.617319859475074e-05,0.1034811239013259
0.29,1.2988611978794013e-05,0.0006074604410580745,-0.007373380097429271,-45.468840526401216,51.543831241136225,5.121621240589019,-1658831.4932742114,5103717.142194285,3598762.646542264,-225.72647531675437,-4938.8518824349485,6863.0272322815445,0.9946333161530907,-9.401205404646605e-06,8.770792103968356e-05,0.10346283688959977
0.295,2.663559665447203e-05,0.0006263915821328893,-0.007380723069234879,-45.47079625605483,51.534137638158235,5.116468680720025,-1658832.621179201,5103692.447925169,3598796.9621400163,-225.4355204635301,-4938.855763951766,6863.211868497551,0.9946352230271223,-9.52764884844474e-06,8.922160830685257e-05,0.10344450233103446
0.3,-1.7143096532750682e-06,0.0005963810470841921,-0.007362146978445087,-45.47321473386963,51.519246006076045,5.1131978137534455,-1658833.7476294362,5103667.753636641,3598831.278660833,-225.14457363312025,-4938.859646825423,6863.3964581446535,0.9946371314555562,-9.625055303908834e-06,9.078589858171413e-05,0.10342614947459712
0.305,1.3424949228708465e-05,0.0006219628251654141,-0.007358551992779615,-45.46653944336654,51.521418395419644,5.127356816079583,-1658834.872624982,5103643.059328748,3598865.5961044407,-224.85364466198266,-4938.863510786974,6863.580985033025,0.994639034746866,-9.785192528471244e-06,9.226823498717172e-05,0.10340784278112361
0.31,-1.3384501249762135e-05,0.0006166133017829252,-0.007373493118449767,-45.46686807345598,51.513585431729076,5.122251683742388,-1658835.9961660071,5103618.365001609,3598899.9144708402,-224.56276542984884,-4938.867344875937,6863.7655748101915,0.9946409367641855,-9.91429706705559e-06,9.381809683201418e-05,0.10338954498756171
0.315,2.558863829085968e-05,0.0006235741729089645,-0.007371536674248575,-45.472559526920705,51.50619156497601,5.1113070821759905,-1658837.118252666,5103593.670655278,3598934.233760095,-224.2718981581681,-4938.871187704743,6863.950127076229,0.994642842304303,-1.0108686836991328e-05,9.534772659490392e-05,0.1033712100124735
0.32,-7.911219503146466e-06,0.0006287605749401993,-0.007359620515876551,-45.47580528799701,51.492700876909055,5.115345976315197,-1658838.2388849377,5103568.976289677,3598968.5539719695,-223.9810105550906,-4938.875052297559,6864.134622712458,0.9946447469978608,-1.0207964135582593e-05,9.690473707769949e-05,0.10335287985746229
0.325,2.271631690014661e-05,0.0006031939281108305,-0.007364056396406724,-45.47110495040747,51.492512185741106,5.105205856520031,-1658839.358062824,5103544.28190487,3599002.875106229,-223.69014390184503,-4938.878870648608,6864.319080992541,0.9946466482706864,-1.0391879761763383e-05,9.846598863339508e-05,0.10333457930599746
0.33,-1.8050061581908604e-05,0.0006174355680293456,-0.007366840163240093,-45.46974160397131,51.47328982646015,5.112999553128959,-1658840.475786412,5103519.587500829,3599037.1971627385,-223.39929131522163,-4938.882745423898,6864.503522967311,0.9946485503572736,-1.0493032738554017e-05,9.997157780029655e-05,0.1033162676820754
0.335,1.937585559379094e-06,0.0005973912366162129,-0.007359010208402567,-45.46926075755255,51.46883757131269,5.105904220088379,-1658841.592055879,5103494.893077577,3599071.520141343,-223.10849554866675,-4938.886555562447,6864.68791873268,0.9946504528186874,-1.0699235438358371e-05,0.00010150205085111175,0.10329794911052294
0.34,1.4095517504886291e-05,0.0006054278663115061,-0.0073852838869973795,-45.47020759684496,51.45188160265259,5.105794673983731,-1658842.7068713845,5103470.198635209,3599105.844041854,-222.81770663170045,-4938.890391717191,6864.872285809468,0.9946523529243646,-1.085055799611308e-05,0.00010298784302584113,0.10327964996936621
0.34500000000000003,-8.381975868371962e-06,0.0006199616747688468,-0.0073887083524394985,-45.480426883887915,51.44743712773618,5.107227656421192,-1658843.820233026,5103445.504173743,3599140.168864048,-222.52694990995542,-4938.894194827066,6865.056591780832,0.994654259472031,-1.0973730076544784e-05,0.00010449675775162208,0.10326128545660514
0.35000000000000003,5.505538254974784e-06,0.0006213675326564329,-0.007383234975161729,-45.4770663510412,51.43322619101303,5.1061859242414585,-1658844.9321408083,5103420.809693335,3599174.4946077373,-222.23616307710992,-4938.897968312206,6865.240883868089,0.9946561665577608,-1.1156548333494376e-05,0.0001060360099966416,0.10324291239846003
0.355,2.827211307922977e-05,0.0006183081328621159,-0.0073393625704056215,-45.46870117362281,51.424710463896524,5.0960261779176275,-1658846.04259477,5103396.115194095,3599208.821272765,-221.94542154105272,-4938.901727589035,6865.425127086211,0.9946580718892599,-1.130519474393202e-05,0.00010758234268946527,0.10322455291146579
0.36,2.0774556172766586e-06,0.0006110353270701461,-0.007349484692851151,-45.481691439574305,51.416544410666944,5.097391035620353,-1658847.151595138,5103371.420675946,3599243.148858891,-221.65472563622066,-4938.905531894397,6865.609323302412,0.9946599655611876,-1.1396427444289025e-05,0.00010912694411757817,0.10320630247833013
0.365,1.563397538557572e-05,0.0005861461445955838,-0.00737019124319566,-45.471873913991786,51.40947887802316,5.10394220549177,-1658848.2591419367,5103346.726138885,3599277.477365919,-221.36399387886604,-4938.909292558168,6865.793487956842,0.9946618615083406,-1.155092334649884e-05,0.00011064670166400471,0.10318802684733533
0.37,2.2505921622811683e-05,0.0005886748402591873,-0.007367704144618706,-45.472365783986056,51.385875903183155,5.104918268013612,-1658849.365235254,5103322.031583057,3599311.8067937875,-221.073332999585,-4938.913038656346,6865.977659402916,0.9946637624654721,-1.166529392550928e-05,0.00011210806494966322,0.10316969968810434
0.375,-9.993448646143027e-06,0.0005825832136363851,-0.007389284574043036,-45.473010280464464,51.382491538099295,5.089940600430338,-1658850.469875386,5103297.337008627,3599346.1371423015,-220.78271983595903,-4938.916733170842,6866.161746207879,0.9946656624408923,-1.1763227825659179e-05,0.00011357748871599458,0.10315137867620391
0.38,1.861971734059713e-05,0.0005966229418622275,-0.007359826442786444,-45.47312910632198,51.379769648421345,5.097856516263805,-1658851.5730624266,5103272.642415582,3599380.468411131,-220.4920964207694,-4938.920484868048,6866.345785660742,0.9946675676416307,-1.1940411969336497e-05,0.0001150233830920995,0.10313300397511024
0.385,1.0504525179349253e-07,0.000578704348669192,-0.007380792540613162,-45.47982854786498,51.369788790408194,5.098720792938883,-1658852.6747964008,5103247.947803855,3599414.8006002074,-220.20149324955355,-4938.924206163588,6866.529844910338,0.9946694649036699,-1.205005606583211e-05,0.00011651156786842664,0.10311470248270954
0.39,-2.2991680483623e-05,0.0006152710129384701,-0.007348063208442701,-45.47474655992125,51.35370671270917,5.095055661831683,-1658853.7750773465,5103223.253173603,3599449.1337094926,-219.9108850368856,-4938.927894641823,6866.713869190879,0.9946713672353046,-1.2201127036622457e-05,0.00011795042144232332,0.10309634882516716
0.395,-2.2809968054862838e-05,0.0005913024439982552,-0.007335757712460259,-45.47702463533836,51.3480288644928,5.100839302263441,-1658854.8739053837,5103198.55852492,3599483.4677387434,-219.62032982517746,-4938.931578520259,6866.897831094517,0.9946732607803832,-1.2419047205500596e-05,0.00011947425253893515,0.10307807652546752
0.4,-8.791002866884226e-06,0.0006041257129782483,-0.007361130562136428,-45.46379973608129,51.33669571696032,5.098657605992624,-1658855.9712806777,5103173.863857901,3599517.8026878037,-219.32978781288088,-4938.93522914123,6867.081792971126,0.9946751508241892,-1.2630335248499411e-05,0.00012093852856694305,0.10305983479136557
0.405,3.4177838759348336e-06,0.0006222776803126832,-0.007345299812337361,-45.46084732513929,51.32235046636975,5.09353297607681,-1658857.0672034684,5103149.169172586,3599552.138556593,-219.03932846788624,-4938.938896893338,6867.265722739174,0.9946770470639403,-1.281007407777064e-05,0.0001224383032007998,0.10304152992324948
0.41000000000000003,-5.953058525153949e-06,0.0005830626431841432,-0.007376324132255029,-45.46461594991849,51.32076114843248,5.099624469788004,-1658858.1616740585,5103124.47446893,3599586.4753448777,-218.74890753924635,-4938.942565344524,6867.44959126843,0.9946789388819884,-1.2964124573310794e-05,0.00012398636169330026,0.10302326438196004
0.41500000000000004,1.1067612063653464e-05,0.0005967605730947274,-0.007349010115141449,-45.4736080287748,51.30509254774494,5.093457829160922,-1658859.2546925426,5103099.779747003,3599620.813052546,-218.45848609404007,-4938.946205562068,6867.633475968532,0.9946808383633601,-1.3131386977002322e-05,0.00012543448967229672,0.10300492166163058
0.42,1.6507960996223123e-05,0.0005832182820835669,-0.007362863570667525,-45.46683193422305,51.28794460381971,5.095596996155154,-1658860.3462588845,5103075.085006932,3599655.1516794385,-218.16805065965733,-4938.949823003655,6867.817281012261,0.9946827304681309,-1.3259842859187233e-05,0.00012692106420831764,0.10298664682221478
0.425,-3.831600850794572e-06,0.0005955960328674471,-0.007367478648169355,-45.46803373774613,51.28182551855144,5.098623489215341,-1658861.436373224,5103050.390248839,3599689.4912252333,-217.8776851580824,-4938.953413940708,6868.001036991974,0.9946846258056277,-1.3371287891917905e-05,0.0001283753632426399,0.10296833749698629
0.43,1.818206582546113e-06,0.0006009747586777641,-0.007353996308560037,-45.47182301931281,51.27348680381532,5.0916436144621136,-1658862.5250357743,5103025.695472845,3599723.8316897866,-217.58733494132855,-4938.956983687906,6868.184784374501,0.9946865219870944,-1.3536499315952033e-05,0.000129855206147729,0.1029500166663716
0.435,2.035048651140003e-07,0.0005974670608580814,-0.007333450705362181,-45.46293942842603,51.268097166945616,5.0905288186778055,-1658863.6122465606,5103001.000678983,3599758.173072958,-217.29697963348127,-4938.96056130375,6868.368483980325,0.9946884143579343,-1.3689041240005914e-05,0.00013134987894940968,0.10293172932540227
0.44,-1.0521943141889544e-06,0.0005992443201323933,-0.0073330341415493005,-45.46648774305695,51.243427346262926,5.084462172742473,-1658864.6980057051,5102976.305867188,3599792.515374605,-217.0066781197212,-4938.964156466137,6868.552174914294,0.9946903011053778,-1.3844689091979904e-05,0.00013283541423359126,0.10291349304134126
0.445,9.876643974682505e-06,0.0006083356396186234,-0.007330857137285913,-45.47230481873953,51.239928467751916,5.091319154942164,-1658865.782313409,5102951.611037499,3599826.8585944287,-216.716403447915,-4938.967719009036,6868.735754531715,0.9946921874084685,-1.4003916640321697e-05,0.00013432504597268155,0.10289525775869589
0.45,-5.240191684837889e-06,0.0005936564958153321,-0.007335520576979903,-45.46365889215926,51.23567348692201,5.090400337952936,-1658866.8651697263,5102926.916190097,3599861.2027321723,-216.42612350937335,-4938.97124172645,6868.919342944703,0.994694072812413,-1.4138305011859942e-05,0.00013584009671779713,0.10287702785087938
0.455,8.029506224649131e-06,0.0005947244815743993,-0.0073514129767179755,-45.463642722652175,51.22581572496788,5.087710596515724,-1658867.9465747713,5102902.221325035,3599895.547787849,-216.13589447182878,-4938.974783278654,6869.102927613185,0.9946959590836493,-1.4306511162672077e-05,0.0001373147561709746,0.10285878631716676
0.46,7.746312133326779e-06,0.0006320027576204332,-0.007332456927401337,-45.457396193524026,51.20277787433911,5.088632443424266,-1658869.0265287214,5102877.526442276,3599929.8937613517,-215.8456856068933,-4938.978320109213,6869.286473522096,0.9946978491042274,-1.4441999106366734e-05,0.00013879548307450676,0.10284050522370151
0.465,2.9194640900622575e-06,0.0006061009373432589,-0.00733992300616661,-45.45661018149791,51.20014001283786,5.084880518760525,-1658870.105031819,5102852.831541925,3599964.2406523917,-215.55555342576938,-4938.9818206616565,6869.469942596823,0.9946997339007803,-1.458776899086492e-05,0.00014036883935829994,0.10282227123295318
0.47000000000000003,-2.1532742275486658e-05,0.0006228170005352308,-0.007351783436296712,-45.454688410131155,51.18439819265154,5.083997015535334,-1658871.1820842787,5102828.136624026,3599998.588460748,-215.26543038400612,-4938.985338720066,6869.653399915601,0.9947016202884705,-1.4738886441619723e-05,0.00014187654321922035,0.1028040186437439
0.47500000000000003,-1.2970535479106958e-05,0.0005855762271862121,-0.00732954464973454,-45.45637867260146,51.16844978621165,5.083605341653429,-1658872.2576862273,5102803.441688591,3600032.937186251,-214.97534906449596,-4938.988835381228,6869.836801278718,0.9947035093797583,-1.4955110913564406e-05,0.00014341953087008773,0.10278573653370447
0.48,1.2356586139832878e-05,0.0005830286456859261,-0.007342232640166613,-45.45806429223989,51.16008202469813,5.0929377797887145,-1658873.3318378357,5102778.746735751,3600067.286828615,-214.68529430139253,-4938.992300824643,6870.020144172155,0.9947053924328696,-1.5140465713077227e-05,0.00014487211066576528,0.10276750968963352
0.485,-1.1698648120349468e-05,0.0006270384817184517,-0.007345535514072644,-45.4665802092111,51.14515350298914,5.073466020386889,-1658874.4045392333,5102754.051765713,3600101.6373876915,-214.3952647696041,-4938.995714064526,6870.20348650473,0.9947072784109569,-1.5262188020207822e-05,0.00014632486171254713,0.10274925124966995
0.49,-3.4770574974905778e-06,0.0005906781984902333,-0.007333153485026108,-45.447748782007146,51.12717281326586,5.077538258502895,-1658875.4757904075,5102729.3567785295,3600135.988863196,-214.10520489112338,-4938.999159569432,6870.386715358618,0.9947091648828719,-1.5455036266122135e-05,0.00014788087570093025,0.10273098456847499
0.495,4.997641487753523e-06,0.0005998819865885598,-0.00731508127267664,-45.438807062380874,51.12290007207668,5.0792932455387,-1658876.5455916019,5102704.661774145,3600170.341254753,-213.81527286845935,-4939.002593802077,6870.569907347745,0.9947110478513134,-1.561809638102861e-05,0.00014934858188043947,0.10271274864211583
0.5,1.0393497938917038e-05,0.0006131552425715924,-0.007346600574132967,-45.448849602143625,51.1154958182609,5.066828406311841,-1658877.6139432753,5102679.966752569,3600204.694562279,-213.52539650660643,-4939.006036910598,6870.75310320691,0.9947129258403353,-1.5762438417181112e-05,0.00015084135263850444,0.10269455761914256
0.505,-4.710252790897709e-06,0.0005901990739957396,-0.0073190527761322925,-45.436908504304974,51.09909299493268,5.078005945693076,-1658878.6808454623,5102655.27171373,3600239.048785623,-213.23547824337754,-4939.009498694692,6870.936234393556,0.9947148115803204,-1.589678174152407e-05,0.00015236851511446552,0.10267628817724032
0.51,-1.5610537398933406e-05,0.0006008416176404881,-0.007324941075818441,-45.448799710934836,51.0906344753711,5.07538195597861,-1658879.746298316,5102630.576657707,3600273.403924582,-212.94566321968705,-4939.012910614024,6871.119349148404,0.994716689920644,-1.606278174289631e-05,0.00015383471453877834,0.10265808721277207
0.515,-2.1992727573511536e-06,0.0006146466227417351,-0.007345909847492228,-45.442347610864594,51.07410908808019,5.069800306982659,-1658880.8103020054,5102605.88158469,3600307.7599790073,-212.65581253889903,-4939.016296226401,6871.302420899862,0.9947185694321325,-1.625862209890906e-05,0.00015532458195829314,0.10263987157446808
0.52,-7.977609313319745e-06,0.0005889632080481442,-0.007327273368030176,-45.44833337695407,51.05201443720975,5.075920589869415,-1658881.8728565846,5102581.186494733,3600342.11694862,-212.36601921100467,-4939.019686472828,6871.4854241637795,0.9947204539825608,-1.6424661866760882e-05,0.00015685222003641655,0.10262160375057357
0.525,4.757191680866551e-06,0.0005993815341667862,-0.007318813165658646,-45.43697092048102,51.049762102201235,5.073771419560131,-1658882.9339622643,5102556.491388025,3600376.474833077,-212.07625267998864,-4939.02299689954,6871.668358584939,0.9947223334246724,-1.6598474712009295e-05,0.00015831450682644616,0.10260338224046243
0.53,-3.3454599299958408e-06,0.0005969266604644116,-0.007334980940585404,-45.43521207647458,51.03411198194469,5.0693947206937775,-1658883.993619256,5102531.796264679,3600410.8336322135,-211.78654395683364,-4939.0263411802825,6871.8512961804545,0.9947242103574806,-1.6743287614565192e-05,0.00015980596885243272,0.10258518172914341
0.535,-5.21556339683508e-06,0.0005861859233428317,-0.0073209079584220125,-45.43882090942898,51.01919030651384,5.067281984074525,-1658885.0518277946,5102507.101124632,3600445.1933458745,-211.49687151407628,-4939.029677660177,6872.03416823938,0.9947260911013895,-1.6907627145886085e-05,0.00016128924731195613,0.10256694098032239
0.54,-1.6536520358305817e-05,0.0006121283798515524,-0.0073264076767572996,-45.434168596102616,51.01458904036609,5.066220984083331,-1658886.1085880056,5102482.405967968,3600479.553973744,-211.20721289595136,-4939.032988068628,6872.216979523053,0.9947279679049701,-1.707385748734627e-05,0.00016274533655623788,0.10254873519496818
0.545,1.0136985957622713e-05,0.000620597903534782,-0.007344531134248046,-45.429839820405384,50.994339509606526,5.052877995163054,-1658887.163900007,5102457.710794725,3600513.9155156473,-210.91758768736298,-4939.0363088555405,6872.399781807162,0.9947298457717939,-1.7274894157216162e-05,0.0001642630373539102,0.10253051570169645
0.55,-7.58563429430205e-06,0.0005920877764324991,-0.00733554398410517,-45.42288151623613,50.98283746901081,5.060696841479537,-1658888.2177639941,5102433.015604824,3600548.2779712942,-210.6280071128951,-4939.039651957179,6872.5824769881765,0.9947317279449119,-1.7411776893289978e-05,0.00016580863665410892,0.10251225109251974
0.555,1.5801479848290169e-06,0.0006060093150047927,-0.007341321845694621,-45.41980585385938,50.96851045116716,5.065892337919855,-1658889.2701802475,5102408.320398295,3600582.6413403917,-210.3384942259879,-4939.042959363455,6872.765161997777,0.9947336074886045,-1.7585422436488793e-05,0.00016727879450507014,0.10249400880668467
0.56,-2.0623364418517205e-05,0.0005857695103164587,-0.007308246475083453,-45.42047966903898,50.96337259279071,5.054071693171751,-1658890.3211490666,5102383.625175329,3600617.0056228335,-210.04903337463534,-4939.046226997979,6872.947814715423,0.9947354881703309,-1.773984379657887e-05,0.00016878592119547455,0.10247575211309441
0.5650000000000001,2.0286136443198043e-07,0.0005913921301595711,-0.0073221981784822145,-45.42619263930014,50.948253883581835,5.061315712265019,-1658891.370670573,5102358.929935924,3600651.3708184245,-209.75956927132418,-4939.049535231762,6873.13042170457,0.9947373600502805,-1.794428252538755e-05,0.0001702370278617136,0.10245757764829248
0.5700000000000001,2.2950520493131253e-05,0.0006083643412920095,-0.007305860166626279,-45.411025770934096,50.93526414175021,5.05418260705154,-1658892.4187448008,5102334.234680146,3600685.7369269575,-209.47012187061182,-4939.052775724488,6873.312991453252,0.9947392351675673,-1.8098375823788914e-05,0.00017170745093142374,0.10243936844418403
0.5750000000000001,3.48886644617788e-08,0.0005925228515161623,-0.007330259134064203,-45.41306184399539,50.91756981059183,5.055185353254378,-1658893.4653720115,5102309.539408075,3600720.1039482113,-209.18076240501395,-4939.05605293118,6873.495510050934,0.9947411057596341,-1.8200238686567536e-05,0.00017322590763295387,0.10242119982521575
0.58,-8.82750300187988e-06,0.0005803771736176393,-0.007307839674513225,-45.41029502655958,50.90660109022837,5.041398104095964,-1658894.5105524997,5102284.844119721,3600754.4718819032,-208.89143279577482,-4939.059288590319,6873.6779666423145,0.9947429822697507,-1.8355043650932606e-05,0.00017469910009703857,0.10240297050573982
0.585,-4.093198591045321e-06,0.000592804349249259,-0.007299255396164575,-45.409358346050304,50.89693669530218,5.045802080875786,-1658895.55428639,5102260.148815083,3600788.8407276976,-208.60212337958035,-4939.062566324559,6873.860351218841,0.9947448527100345,-1.8528768938513865e-05,0.00017613982012331834,0.10238479691018691
0.59,1.670499103195e-05,0.0006048316474674872,-0.007319449930170956,-45.39368040638059,50.87280372021457,5.0581148304065815,-1658896.5965738157,5102235.453494133,3600823.2104853718,-208.31284689512168,-4939.0658136486645,6874.042718357194,0.9947467206140422,-1.869389776206201e-05,0.00017761265696260777,0.1023666446255364
0.595,-3.686669695573062e-06,0.0006044267981619154,-0.00732785868576942,-45.40126733602041,50.86046808473986,5.050584316242167,-1658897.6374151974,5102210.758157108,3600857.581154777,-208.02370576374014,-4939.06899655208,6874.225043884451,0.9947485933474047,-1.8810391204443807e-05,0.00017912072568926883,0.10234844207556108
0.6,3.34412887898241e-06,0.0005879330807693364,-0.0073047524836990715,-45.400356449420705,50.846835315703395,5.047876679251949,-1658898.676810834,5102186.062804186,3600891.9527356387,-207.73454894557142,-4939.072172410185,6874.407300614692,0.9947504678958092,-1.8977496256258087e-05,0.00018062256951508396,0.10233021858869802
0.605,1.8349552613352146e-05,0.0005940868943469021,-0.007358943994055433,-45.39777308376054,50.83290393754925,5.051641028249233,-1658899.714760764,5102161.3674354125,3600926.32522765,-207.44542303733235,-4939.075336741624,6874.589503930661,0.9947523362058314,-1.9122886628232016e-05,0.000182085195201471,0.10231205252724379
0.61,3.4407442117996613e-06,0.0005817385459967494,-0.007303325902766954,-45.39131780452811,50.816932752016946,5.04265941594567,-1658900.7512651826,5102136.672050904,3600960.69863059,-207.15634434824963,-4939.078466771046,6874.771672093228,0.9947542180384921,-1.9232558984877806e-05,0.00018356696012587117,0.10229375165623762
0.615,1.0511628776494785e-05,0.0005867387052041823,-0.0073156870917657065,-45.38564574479526,50.80816488432752,5.044480277595321,-1658901.7863243376,5102111.976650697,3600995.0729441815,-206.8673176178586,-4939.081616059274,6874.95376451787,0.9947560853163422,-1.9376124413815674e-05,0.0001850142060385326,0.10227558907391127
0.62,-6.420779787661772e-06,0.0005856920315824314,-0.007301303793111439,-45.38837409075202,50.79240418960437,5.047652090050954,-1658902.8199384818,5102087.2812347645,3601029.4481681925,-206.57834007434516,-4939.084756872084,6875.135839902357,0.9947579554185395,-1.9503389525680906e-05,0.0001864756940844449,0.10225739571278107
0.625,-6.839029455080887e-06,0.0005797995706646233,-0.007305670888838779,-45.380435670532606,50.76886929009474,5.049972000029242,-1658903.852107803,5102062.585803246,3601063.8243024587,-206.289388512588,-4939.087850611133,6875.3178665876985,0.9947598215091771,-1.967248947066613e-05,0.00018793025114172457,0.10223923809499036
0.63,1.5069325468182644e-06,0.0005968975701567982,-0.007307494738168498,-45.37345938833563,50.75846720691334,5.0439847567916125,-1658904.8828325837,5102037.890356357,3601098.201346674,-206.00052369718384,-4939.090904760882,6875.499819594782,0.9947616883850383,-1.9841125503946454e-05,0.00018937004705892938,0.1022210695828559
0.635,1.3413681192578975e-05,0.0005981614920167999,-0.007304488813061934,-45.372037767654966,50.75234648739871,5.042957724193477,-1658905.9121131601,5102013.194894145,3601132.5793005438,-205.71170684711404,-4939.093980157488,6875.681728181326,0.9947635553852401,-1.9993376225383912e-05,0.00019085449674208089,0.10220289649585489
0.64,2.4918572058040052e-05,0.0006085407420273912,-0.007311693591811367,-45.36274124517921,50.73776295082593,5.03538044917476,-1658906.9399497064,5101988.499416555,3601166.9581639115,-205.42291168848809,-4939.097055613066,6875.863618933212,0.9947654212833154,-2.0116337448017312e-05,0.0001923451320303886,0.10218473084424746
0.645,2.6052644092256422e-05,0.0005735040528602812,-0.0072892548688436466,-45.364088582066366,50.72604889390739,5.039650035516012,-1658907.9663424368,5101963.803923532,3601201.337936573,-205.13418043963432,-4939.100153734584,6876.045445818045,0.9947672886832043,-2.021334196155576e-05,0.0001938645182496812,0.10216654723458166
0.65,-5.330649339230924e-06,0.0005951999724815763,-0.007299899782413587,-45.35609478688322,50.70511081702484,5.031608106741921,-1658908.9912915763,5101939.108415117,3601235.7186182993,-204.8454754221345,-4939.1032125086185,6876.227244670669,0.994769150035373,-2.0298566304831758e-05,0.00019529706181772364,0.10214841939514978
0.655,-1.803371652366201e-05,0.0005887021480632459,-0.00729427486861329,-45.35929155167158,50.6812367398378,5.036021354954779,-1658910.0147973634,5101914.412891389,3601270.10020879,-204.55683937586292,-4939.106278539045,6876.408951437702,0.9947710137608047,-2.0467384178683267e-05,0.00019677554647445846,0.1021302650626709
0.66,-2.0624100324230407e-05,0.0005845433077961459,-0.007277508753636892,-45.36380753526256,50.675319919065025,5.029726347175319,-1658911.0368600704,5101889.71735251,3601304.4827076173,-204.26824346307694,-4939.109273039352,6876.590579621245,0.9947728757193618,-2.0666131824786654e-05,0.00019823462831558935,0.1021121246913142
0.665,-9.306989956336162e-06,0.0006034359487785331,-0.007286182938258541,-45.34963705398678,50.665562742275235,5.035211962652924,-1658912.0574797678,5101865.021798636,3601338.866114494,-203.9796354793233,-4939.112276633508,6876.77217103318,0.9947747330676024,-2.08702515937447e-05,0.000199682706929037,0.10209402598354889
0.67,-1.1368356692807893e-05,0.0005718249227016821,-0.007269609163597402,-45.33584944051929,50.630033172091,5.023019666142456,-1658913.0766566596,5101840.326229763,3601373.2504293183,-203.69112119521566,-4939.115272475908,6876.953758718624,0.9947765922890861,-2.10510528117873e-05,0.0002011806583514088,0.10207590566293887
0.675,3.2723949838954154e-06,0.0005982481106675611,-0.007280924798390098,-45.338461280854226,50.63190325880624,5.028768920043042,-1658914.0943912698,5101815.630645906,3601407.635651686,-203.40272292889426,-4939.118270417851,6877.13518834156,0.9947784469654336,-2.1228905375162103e-05,0.00020259946976729877,0.1020578265290243
0.68,1.2751016736222854e-05,0.0005882084680878629,-0.0073103553805370074,-45.330668584596886,50.61189683681584,5.02553996461443,-1658915.1106838833,5101790.9350471,3601442.021781277,-203.11432243399315,-4939.121251700942,6877.316648039251,0.9947803041850858,-2.137709463512312e-05,0.000204087729068141,0.10203971921093766
0.685,1.2826147682187484e-05,0.00058405081013728,-0.007255491580312266,-45.338887725857674,50.59394868624723,5.02399332185212,-1658916.1255346755,5101766.239433414,3601476.408817979,-202.82599446144266,-4939.12422296312,6877.498032695543,0.9947821685849693,-2.149916493262704e-05,0.000205553436620798,0.10202153866197311
0.6900000000000001,1.0171443765023661e-05,0.0005999737586139916,-0.007304724853605192,-45.33552439453443,50.59577168371865,5.014884609871846,-1658917.1389438258,5101741.543804983,3601510.7967614154,-202.53766571747727,-4939.127149419208,6877.6793419440055,0.9947840186618521,-2.161995975538627e-05,0.00020700882630614252,0.10200349452297836
0.6950000000000001,4.689391701531461e-06,0.0005757285020072777,-0.007290565036683293,-45.31842296014494,50.56796917108684,5.018484528386324,-1658918.1509113465,5101716.848161785,3601545.1856113817,-202.24934254136818,-4939.130129892987,6877.860644554839,0.9947858809535595,-2.175144268378495e-05,0.00020850313602539992,0.10198532790930065
0.7000000000000001,-1.798349689062766e-05,0.0005755621920838927,-0.007287388369281601,-45.32035743534709,50.53240265312401,5.01618848674844,-1658919.161437594,5101692.152503774,3601579.5753676617,-201.9611564809408,-4939.13307470315,6878.041867418971,0.9947877393141107,-2.1890370242846312e-05,0.00020993575162522724,0.1019671964805978
0.705,-1.9377716056641104e-06,0.0005851190433923862,-0.007274224062830198,-45.31740279300479,50.52921585151947,5.017710114006307,-1658920.1705230572,5101667.456831211,3601613.9660296966,-201.67302871100767,-4939.135950209417,6878.222946507299,0.9947895965313308,-2.208564051092662e-05,0.00021136217399385867,0.10194907293000786
0.71,2.3920439564105283e-05,0.0005903242926087017,-0.007259498425137853,-45.299833730285044,50.518371949516705,5.016710423202376,-1658921.1781679473,5101642.761144271,3601648.3575971327,-201.38492738695882,-4939.138825586715,6878.404028010822,0.9947914500574823,-2.2243434294425038e-05,0.00021281645427655821,0.10193098207570754
0.715,4.094526789859726e-06,0.0005857460830199995,-0.007283190424825142,-45.30967561800685,50.50232127724436,5.018052524276001,-1658922.1843725874,5101618.065442899,3601682.750069918,-201.09692861976322,-4939.141723211435,6878.585086066325,0.9947932994993294,-2.2338237857839458e-05,0.00021429027003311787,0.10191292779584413
0.72,-5.798686641206863e-06,0.0005845621479403022,-0.007275944762885256,-45.29274630486748,50.48200570078547,5.02225572210686,-1658923.189137214,5101593.369727178,3601717.143447841,-200.8089220172835,-4939.144565577573,6878.766083077727,0.9947951546479398,-2.248119437233782e-05,0.00021574764717270856,0.10189481457135335
0.725,1.8589393152943392e-05,0.0005946478005268921,-0.007273814610238368,-45.28404153881605,50.46646982803615,5.0120243957067405,-1658924.1924621162,5101568.673997297,3601751.537730629,-200.5210389287726,-4939.147386669666,6878.947032212258,0.9947970076192881,-2.264844968110564e-05,0.00021719956004753778,0.10187671933817297
0.73,-1.5356835995445306e-08,0.0005951932768191139,-0.0072756384738532605,-45.283050012103296,50.450169392145085,5.012163042495609,-1658925.194347752,5101543.978253237,3601785.9329179735,-200.23321531875652,-4939.150237436728,6879.127905585734,0.9947988597127927,-2.275761958665555e-05,0.00021868276735709412,0.10185862935493291
0.735,-1.0124136833275974e-05,0.0005873176018460722,-0.007268703089805801,-45.28235753866979,50.433598248278905,4.997712727638569,-1658926.1947943685,5101519.282494995,3601820.329009544,-199.9454313196094,-4939.153059374704,6879.308722637507,0.9948007119381395,-2.2913199345596998e-05,0.00022016259345221907,0.1018405348119733
0.74,4.825322680731354e-06,0.0006093693373663188,-0.007255336039785225,-45.280728778995794,50.419697614662205,5.011335156706482,-1658927.1938021153,5101494.586722574,3601854.726004954,-199.65766735459795,-4939.155908768619,6879.489441211875,0.9948025620705006,-2.3091910676100945e-05,0.00022162025934479538,0.10182245748945754
0.745,1.9560859877199835e-05,0.0005914135984456134,-0.007266804824231687,-45.2708520522906,50.402441789436935,4.997131884397292,-1658928.1913711806,5101469.890936095,3601889.1239039353,-199.369958785293,-4939.158683020832,6879.670151414498,0.9948044084587221,-2.3239048596114955e-05,0.00022313657421975025,0.10180441336753568
0.75,1.1986154821485588e-05,0.0006030068532637299,-0.007245168563899799,-45.25959777862911,50.38639792514879,5.012356594630703,-1658929.1875018599,5101445.195135634,3601923.5227062358,-199.08231294483616,-4939.161501002652,6879.850768737088,0.9948062574466975,-2.3344975529105262e-05,0.00022461198259057845,0.10178634068166752
0.755,-4.246785132091329e-06,0.0005716484492677027,-0.007241116474361636,-45.259368356747025,50.362186308850724,4.99750287932918,-1658930.1821945712,5101420.499321251,3601957.9224116113,-198.79477157058312,-4939.164252339935,6880.03138155052,0.994808100592462,-2.3472678802373287e-05,0.00022611429725205925,0.10176832177537329
0.76,-1.9265044324891595e-06,0.0005995763987769719,-0.007271281074243967,-45.2580427176341,50.35311455281475,4.997739797903303,-1658931.1754496538,5101395.803493085,3601992.3230197234,-198.50726142597728,-4939.167014203833,6880.211863324055,0.9948099423957257,-2.3632773197348527e-05,0.0002275344930932639,0.10175031292413533
0.765,1.653114763586615e-05,0.0005802180201874925,-0.007254650892197315,-45.24151861360367,50.327681850476175,4.988052448025861,-1658932.1672672557,5101371.10765114,3602026.7245301786,-198.2197793703338,-4939.169764092263,6880.392318596267,0.994811791526879,-2.379421834144176e-05,0.00022902473480474167,0.10173222901611566
0.77,1.3687579131745906e-05,0.0005996766608892283,-0.007255978668690366,-45.24297984494722,50.32398183596846,4.995226788750482,-1658933.15764773,5101346.411795392,3602061.1269426397,-197.93241040323977,-4939.1725348402815,6880.572665984824,0.9948136361105039,-2.390482580352037e-05,0.0002304715269164756,0.10171418642467071
0.775,-7.952138847038699e-06,0.0005870138179707158,-0.0072696326345707725,-45.24022366217398,50.30043223588587,4.996286993225783,-1658934.1465913968,5101321.715925872,3602095.5302568693,-197.6450562362497,-4939.175272836786,6880.753025771592,0.9948154806909242,-2.4027454124048836e-05,0.00023196599009716264,0.10169614049779063
0.78,6.331607612208349e-06,0.0005762833348281066,-0.007241177327334876,-45.23171428051558,50.27512593329947,4.989334225848689,-1658935.134098447,5101297.020042777,3602129.934472693,-197.35776382615265,-4939.177965340675,6880.933303825219,0.9948173284186189,-2.4200689765214657e-05,0.00023342345771077986,0.10167806059252807
0.785,-4.553738648318896e-06,0.0006279843788990788,-0.0072599987294507,-45.23425008435976,50.26586865361422,4.99644813026413,-1658936.120169236,5101272.324146234,3602164.3395896414,-197.0705518415701,-4939.180651762711,6881.113475415816,0.9948191685908327,-2.43356568600117e-05,0.00023485787065136588,0.10166005141549328
0.79,2.9322468788843817e-06,0.0005939560488887471,-0.00725778076671046,-45.220224578057135,50.245922391213675,4.98596459772157,-1658937.104804015,5101247.628236379,3602198.7456074194,-196.7833597875583,-4939.1832907252865,6881.293635748971,0.9948210131863643,-2.451084720242763e-05,0.00023641809883121,0.10164199539834214
0.795,2.6592848021653745e-06,0.0005793269273630257,-0.007241716961135205,-45.218907290807586,50.228304425028846,4.983971342776214,-1658938.0880030612,5101222.9323132485,3602233.152525774,-196.49625865942872,-4939.185961073023,6881.473706133097,0.9948228569089325,-2.4658771418128144e-05,0.00023789559905048078,0.10162394486133115
0.8,2.111746294063524e-05,0.0006179280317706146,-0.007267784797917285,-45.20322215272054,50.215195091453374,4.98336480168739,-1658939.0697667033,5101198.236376825,3602267.560344312,-196.20919816983243,-4939.188608605877,6881.653709101658,0.9948246962300832,-2.4803648271587486e-05,0.00023933664737149605,0.10160593424338528
0.805,1.787664926824178e-05,0.0005827139698038358,-0.007256282914478583,-45.20560376440533,50.20061605417766,4.987680875921719,-1658940.0500952895,5101173.540427134,3602301.969062782,-195.92223632004664,-4939.191267676809,6881.8336788269025,0.9948265418214223,-2.4912439338847876e-05,0.0002408783859777969,0.10158785874603106
0.81,2.136099894310815e-05,0.0005918665676213213,-0.007243954313414403,-45.198380929441825,50.17374829295571,4.9820901255055565,-1658941.0289891332,5101148.844464269,3602336.378680999,-195.63530114860367,-4939.1938784033955,6882.013608054953,0.9948283841824889,-2.5020340287216998e-05,0.00024233172244348533,0.1015698118250556
0.8150000000000001,-6.592028214748562e-06,0.0005891643018879878,-0.00722533207709667,-45.193453720884506,50.14991911613255,4.981244903525787,-1658942.006448499,5101124.148488394,3602370.789198587,-195.34844517005862,-4939.196471398038,6882.193427188841,0.9948302230787197,-2.512189200248624e-05,0.00024380870752229846,0.10155179552991478
0.8200000000000001,5.796781232516648e-07,0.0005739163214880566,-0.0072493885647746375,-45.18640058969455,50.15394841897944,4.982695134564186,-1658942.9824737587,5101099.45249964,3602405.200615055,-195.0616586823284,-4939.199030181109,6882.37315990503,0.9948320569194335,-2.529226759958627e-05,0.00024527187625108756,0.10153382553344871
0.8250000000000001,1.3692670070898922e-05,0.0005859115086816108,-0.0072402913946660674,-45.183621921337824,50.11782152890638,4.981614799980789,-1658943.9570651648,5101074.75649803,3602439.612930273,-194.77490379205824,-4939.201613932835,6882.552927454689,0.9948338965485354,-2.5440950866427714e-05,0.0002466989408556444,0.10151579566968248
0.8300000000000001,-1.644106946720617e-05,0.0005990641416531814,-0.00722669120560793,-45.17476327151352,50.109207738596744,4.980776657833843,-1658944.930223001,5101050.060483665,3602474.0261439825,-194.4882306591137,-4939.204131836773,6882.732556183671,0.9948357335338616,-2.5560059644462633e-05,0.00024815916694391986,0.10149778838898331
0.835,1.000377914678195e-05,0.000585968078619333,-0.007220330950473621,-45.16842495704041,50.086053459468936,4.976490742983244,-1658945.9019476206,5101025.36445669,3602508.4402557816,-194.2016171350913,-4939.206658445419,6882.912163549667,0.9948375667306126,-2.575744268663585e-05,0.0002496444593229283,0.10147981491760896
0.84,1.581943166462894e-05,0.0005898523461419662,-0.007239936691643185,-45.151183701269886,50.06983756930578,4.96758980240784,-1658946.8722393475,5101000.668417121,3602542.8552653873,-193.9150737475472,-4939.209168846768,6883.091678745537,0.9948393979970257,-2.5885728463598244e-05,0.00025110388993668746,0.10146185721580787
0.845,2.6951171548229096e-05,0.0005832183508720466,-0.007230737597262242,-45.15566737957601,50.054815495379735,4.972763576957874,-1658947.8410986094,5100975.972364901,3602577.2711723996,-193.62863090620246,-4939.211719481947,6883.271126139528,0.9948412339072817,-2.6000547701610904e-05,0.00025257445492226326,0.10144385071532647
0.85,9.342922321205516e-06,0.0005911866133455404,-0.007226198576931707,-45.14577559737876,50.036644562622435,4.970622406240904,-1658948.8085257043,5100951.27630007,3602611.6879765447,-193.3422071513207,-4939.214213041859,6883.450531812536,0.9948430671618288,-2.6085992892755652e-05,0.0002540313441089076,0.10142586705393364
0.855,4.534088593244919e-06,0.0005814836742286048,-0.007236696922830278,-45.136962153464815,50.01149586525084,4.965599892524264,-1658949.7745208803,5100926.5802227855,3602646.1056775604,-193.05586320955894,-4939.216700617953,6883.629874522154,0.9948448989322022,-2.6217249274180704e-05,0.00025550358660489223,0.10140789465889485
0.86,-6.6825434839523465e-06,0.0005767248973709624,-0.007238163940387867,-45.12941476492521,49.98262074000299,4.963755297584767,-1658950.7390845462,5100901.884133096,3602680.5242750393,-192.76960313877987,-4939.219175358838,6883.809116966543,0.9948467330427063,-2.6358012575587538e-05,0.00025695047689575296,0.10138989612363726
0.865,1.3773674398683052e-06,0.0005956485804429282,-0.007227293909722662,-45.1255850520871,49.97569556588847,4.973647416226459,-1658951.7022171342,5100877.188031123,3602714.9437684612,-192.48343206512675,-4939.221613617,6883.988251844483,0.9948485671996041,-2.652546765539979e-05,0.00025838268823835865,0.10137189391384921
0.87,-3.285465925236554e-06,0.0005798171781434042,-0.007237087640879488,-45.1128553371141,49.94686135784673,4.963665988640697,-1658952.6639189862,5100852.49191706,3602749.364157586,-192.19730874386724,-4939.224011846825,6884.167397977794,0.9948503982626182,-2.667766555180795e-05,0.000259864008335324,0.10135391869932439
0.875,1.0176199262711446e-05,0.0005722151249792382,-0.007226597915949804,-45.113493478383475,49.93929488091007,4.950219858998198,-1658953.6241904758,5100827.795790989,3602783.7854421264,-191.91128711986835,-4939.226416362143,6884.346418270824,0.9948522314898203,-2.6837455419459462e-05,0.00026130477151030276,0.10133591909728953
0.88,3.548469552194212e-06,0.0005954633620703302,-0.0072204745774543605,-45.09337359530846,49.927309043582014,4.95431799136649,-1658954.5830318548,5100803.099652792,3602818.2076216177,-191.62526442411567,-4939.228862181327,6884.52537822186,0.9948540617381737,-2.6961831604004678e-05,0.00026273003837977166,0.10131794554295225
0.885,-6.6545856032555255e-06,0.0005907955459805363,-0.007222215029198674,-45.097680400359934,49.89410261549532,4.949707238983277,-1658955.5404434262,5100778.403502355,3602852.630695879,-191.33936419362115,-4939.23131259027,6884.704326255186,0.9948558900932359,-2.7108576476345384e-05,0.000264211448313587,0.10129998718771364
0.89,-2.0194169348028334e-06,0.0005825663303532878,-0.007211721321172498,-45.09074546303593,49.8782511102319,4.954603447313619,-1658956.496425597,5100753.707339816,3602887.0546645233,-191.0535040498065,-4939.2337031178995,6884.883131484226,0.9948577185650244,-2.727951678892253e-05,0.0002656786646085391,0.10128202447754527
0.895,-7.911748656055922e-06,0.0005983540031499861,-0.0071840234714943725,-45.0854960446996,49.864063211801124,4.952870738876591,-1658957.4509786451,5100729.01116541,3602921.479527103,-190.76771525550308,-4939.236059166387,6885.061900323723,0.994859544059539,-2.7436838110314436e-05,0.0002671265879335475,0.10126408783103734
0.9,6.7604415350524865e-06,0.0006014918243631641,-0.007175526944121191,-45.063158132533964,49.83788232937063,4.9459941009906405,-1658958.40410288,5100704.314979245,3602955.905283402,-190.48197873273222,-4939.2384072072655,6885.240619568105,0.9948613622067991,-2.761279284252023e-05,0.00026861228765973576,0.10124622004304577
0.905,-5.999479186188497e-06,0.0005752865824303387,-0.00721368869421165,-45.06505688928221,49.822732911708094,4.948703432543854,-1658959.3557987923,5100679.618781289,3602990.3319330523,-190.19638610769346,-4939.240775023561,6885.419240355836,0.9948631778795964,-2.7753044103630345e-05,0.0002701095058875173,0.10122837334430419
0.91,2.183907099039423e-06,0.0005830160536770727,-0.007187814116444089,-45.05904806422389,49.802185280748155,4.935538634171293,-1658960.3060668104,5100654.9225716,3603024.7594756885,-189.91082112047644,-4939.243100388112,6885.597814077526,0.9948650029028248,-2.791842527849089e-05,0.00027153831563885743,0.10121043170872909
0.915,8.659346527292825e-06,0.0005879104507403998,-0.007182959212126348,-45.04863614253681,49.78150480419333,4.941845835719948,-1658961.2549071347,5100630.2263502255,3603059.187910926,-189.62530859482476,-4939.245449774627,6885.776281030766,0.9948668210499436,-2.806539122565211e-05,0.0002729884221688067,0.10119255438832762
0.92,9.109422241987804e-06,0.0005777613340765767,-0.007208547200687411,-45.04482303705241,49.769000508825094,4.9291664605370284,-1658962.2023201399,5100605.530117213,3603093.6172383754,-189.33989348251586,-4939.247755120914,6885.95469877378,0.9948686376428149,-2.819748654211992e-05,0.0002744523402994779,0.10117468910525124
0.925,1.5876966605462045e-05,0.0005833112547443816,-0.007203019293258602,-45.03520510636912,49.743962644827135,4.938000318318792,-1658963.1483061411,5100580.833872584,3603128.047457727,-189.05450708107642,-4939.250096455608,6886.133041910535,0.9948704603907522,-2.8325912906270443e-05,0.00027589112778296125,0.10115676014790628
0.93,3.7734601253218806e-07,0.0005747446890872953,-0.007227857088977221,-45.0284740338622,49.72437220585515,4.940019543944001,-1658964.092865473,5100556.137616413,3603162.4785686433,-188.76922564037505,-4939.252372179671,6886.311324564808,0.9948722814124251,-2.8438906903460486e-05,0.0002773454306552676,0.10113884490133941
0.935,-1.586221011533515e-05,0.0005844070688434356,-0.007196172780340716,-45.03196968674571,49.70003242961967,4.933058426928657,-1658965.0359985812,5100531.441348943,3603196.910570823,-188.48401764253308,-4939.254615703267,6886.489547391694,0.9948741083932916,-2.8588302438824437e-05,0.0002787745060397417,0.10112086785692043
0.9400000000000001,1.194722202296222e-07,0.0005996379221882057,-0.00719333490690165,-45.00594024893019,49.68690304869022,4.934281995210448,-1658965.977705711,5100506.745070327,3603231.343463836,-188.1988342775958,-4939.25683059771,6886.667657490162,0.9948759270308944,-2.8780509338258418e-05,0.00028022351033109565,0.10110296959478947
0.9450000000000001,7.035334278081639e-06,0.000585253723507343,-0.0071955438490286135,-45.01155911805706,49.661457401319254,4.93653284080181,-1658966.9179872922,5100482.0487805735,3603265.777247349,-187.9137981825751,-4939.2590708406,6886.845747801869,0.9948777446176328,-2.8936814473908018e-05,0.00028171443624757156,0.10108507834576519
0.9500000000000001,-2.3487120924726982e-05,0.0005705278663229364,-0.007167279143466007,-44.99716667572832,49.64887732056922,4.929520522966935,-1658967.8568437651,5100457.352479798,3603300.2119210805,-187.62879099070645,-4939.261239194356,6887.02374486048,0.9948795624492041,-2.9072284993116748e-05,0.0002831713333407886,0.10106718156591953
0.9550000000000001,1.1919487999921999e-05,0.0005516708860508069,-0.007184377278894941,-44.99190279075145,49.62664536960468,4.922180909243836,-1658968.794275411,5100432.656168093,3603334.647484672,-187.3438673346449,-4939.263442718713,6887.201691649473,0.9948813728246377,-2.9279930158498993e-05,0.0002845838942142545,0.10104935507590844
0.96,-3.630511105775107e-06,0.0005967564937483984,-0.007190440284846088,-44.97820667037248,49.594542466970985,4.925380476663802,-1658969.7302825872,5100407.959845382,3603369.083937752,-187.05900322262588,-4939.265641854046,6887.379540403459,0.9948831872133265,-2.939476032556186e-05,0.0002859584971354365,0.10103148600282649
0.965,1.721415185897038e-05,0.0006153554586005908,-0.007182230559320325,-44.97560776128738,49.588703121319355,4.912091922842543,-1658970.6648657648,5100383.263511803,3603403.5212798216,-186.77426779170773,-4939.267789699593,6887.55728755085,0.9948850027767574,-2.9559658564028383e-05,0.00028744130920206005,0.10101360182476284
0.97,-1.5088810660491436e-05,0.0006011718855224945,-0.007180143856851701,-44.960388607929005,49.562258281438304,4.919179674685669,-1658971.5980252912,5100358.567167357,3603437.9595105015,-186.4895427983798,-4939.269988719013,6887.734984421765,0.9948868159317228,-2.9677402657998135e-05,0.00028897564534614357,0.10099573801684143
0.975,-8.209692298793562e-06,0.000602336854429837,-0.007177328107469757,-44.95938400080694,49.549766018870024,4.916333765061415,-1658972.5297615186,5100333.870812043,3603472.3986294996,-186.20494812283934,-4939.272137157617,6887.912614832521,0.9948886282447046,-2.9871908512551308e-05,0.00029046654777274635,0.10097787939060557
0.98,4.185563757360565e-06,0.000582004517284073,-0.007178794496141108,-44.940194299808596,49.53061200960626,4.909320256218648,-1658973.4600748443,5100309.174446007,3603506.8386365264,-185.92038211214643,-4939.274277073645,6888.090195807899,0.9948904395238379,-3.0049596511356386e-05,0.00029196208444817127,0.10096002772992743
0.985,-6.126029932149638e-06,0.0005722176509559429,-0.007165963821806634,-44.93659700272988,49.50417567575617,4.916918617453357,-1658974.3889656318,5100284.478069196,3603541.2795312754,-185.63593295890527,-4939.2764468745245,6888.267703755786,0.9948922508662952,-3.019132388308712e-05,0.0002934101783626653,0.10094217238175583
0.99,1.2216401701967244e-06,0.0005983984905793649,-0.007172085883425534,-44.920817929929136,49.47771796018895,4.919079071837261,-1658975.3164343708,5100259.781681729,3603575.7213133774,-185.35156261389815,-4939.278540298817,6888.445136998615,0.9948940586553144,-3.0356219376189115e-05,0.00029483132877030635,0.10092434892206795
0.995,-6.943312104441664e-07,0.0005840503195699419,-0.007171300993345457,-44.92095162839724,49.4620350972746,4.901550883640016,-1658976.2424815742,5100235.085283869,3603610.1639824454,-185.06731873624886,-4939.280603702093,6888.6224903332595,0.9948958676485472,-3.0509449699068594e-05,0.0002963194504195336,0.10090651019533557
1.0,-2.3491469260766382e-07,0.000587548391809366,-0.007175709152792433,-44.90990661800295,49.434941991053385,4.903454547063514,-1658977.1671075842,5100210.3888755925,3603644.6075380193,-184.78308530115447,-4939.282706756058,6888.799739259474,0.9948976761322711,-3.066382535099177e-05,0.0002977714013576492,0.10088867339066901
1.0050000000000001,-1.1709151637404789e-05,0.000579821663993748,-0.007170422782491269,-44.90201090375353,49.422842011155694,4.903826879762713,-1658978.0903126923,5100185.692456902,3603679.0519796205,-184.49895791798866,-4939.284769618604,6888.976901054024,0.9948994854031469,-3.0817943883150106e-05,0.0002992321682960915,0.10087082558855917
1.01,-1.7235609358917268e-05,0.0005807707707111002,-0.007171973770826709,-44.89635019653931,49.39022052040055,4.896870885143752,-1658979.0120973208,5100160.996027912,3603713.497306947,-184.214893495733,-4939.286826272801,6889.154029706493,0.9949012930237582,-3.099864922825412e-05,0.0003006708237117537,0.10085299091149308
1.0150000000000001,-6.3947659207005574e-06,0.0005718579152493674,-0.007164056657578807,-44.88324464987501,49.37143747146975,4.897677748731706,-1658979.9324618285,5100136.299588712,3603747.9435195704,-183.93090954447533,-4939.288853932846,6889.3310195119475,0.9949031007124128,-3.1193340729663814e-05,0.00030211044617921783,0.10083515234817893
1.02,-7.732312490494836e-06,0.0005649157296429375,-0.007177957072071639,-44.868609653684516,49.346415557386806,4.8943806586025485,-1658980.8514066637,5100111.603139404,3603782.3906170055,-183.64702448819406,-4939.290869024286,6889.507954549794,0.9949049060912787,-3.135881544660753e-05,0.00030353063344286206,0.1008173334366829
1.025,4.617005361402286e-06,0.0005627192692706934,-0.007137501155095947,-44.86895890607296,49.33139971276247,4.888798994123161,-1658981.7689323525,5100086.90668004,3603816.8385988898,-183.36325114070058,-4939.292876520327,6889.684799263534,0.9949067146570465,-3.152587779893557e-05,0.00030493321536259333,0.10079947992016364
1.03,-9.095735904061445e-06,0.0005795281906490896,-0.007138319375574623,-44.85499009656949,49.30280955389366,4.881363759098736,-1658982.6850392339,5100062.210210655,3603851.287464827,-183.0795013588239,-4939.294877696482,6889.861575470199,0.9949085127100682,-3.166163974694222e-05,0.0003063334492017071,0.10078172698658466
1.035,-1.7437956578682615e-06,0.0005743091165445259,-0.007145134196548784,-44.849217134513445,49.27645914230699,4.882161026736887,-1658983.5997276406,5100037.513731265,3603885.737214352,-182.79586137950056,-4939.296877989913,6890.038234698433,0.9949103106364422,-3.1835744699277324e-05,0.0003077720362409369,0.10076397199474249
1.04,6.123091562234871e-06,0.0005676750489609809,-0.007104600057825752,-44.83514150124753,49.26055832085132,4.885431512200667,-1658984.5129980466,5100012.817241987,3603920.1878469447,-182.5123009787101,-4939.2988332958275,6890.214802265866,0.9949121099649139,-3.1990253845447284e-05,0.00030919949338918543,0.10074620001498891
1.045,1.5612828886249767e-05,0.0005848128240827808,-0.00711605442192897,-44.822460357099274,49.240897576217534,4.888791292406625,-1658985.4248509035,5099988.120742967,3603954.6393622863,-182.22884175822225,-4939.300774866482,6890.391334414889,0.9949138987723026,-3.212349360240856e-05,0.0003106124342924879,0.10072852881727884
1.05,-1.0931520394960533e-05,0.0005803601775931119,-0.0071208831373854335,-44.80641751788828,49.216253087684095,4.885324802642522,-1658986.3352867186,5099963.424234303,3603989.0917601595,-181.94548431378408,-4939.302690813453,6890.567814919479,0.9949156901351596,-3.223745422211464e-05,0.0003120703904219655,0.10071082908852091
1.055,1.227317944774406e-05,0.0005595917487246761,-0.007137666420851723,-44.80885767734637,49.20101139539729,4.888171714635526,-1658987.2443060393,5099938.727716067,3604023.545040215,-181.66224394079603,-4939.304603470246,6890.744207261387,0.9949174823979057,-3.241632099844885e-05,0.0003135105877845866,0.10069311733830995
1.06,1.182437252389555e-05,0.0005859173539400249,-0.007120650850133556,-44.79570119892662,49.170972143781526,4.879356562750189,-1658988.1519092214,5099914.031188379,3604057.999202113,-181.37902891744164,-4939.3064716987665,6890.9205519439065,0.9949192785856394,-3.253225592028335e-05,0.00031490496788835255,0.10067536379444794
1.065,1.350213576319431e-05,0.000574393933374895,-0.007124480875221845,-44.790334874802944,49.15070485017881,4.877142857542051,-1658989.0580965958,5099889.334651351,3604092.454245416,-181.09592085256094,-4939.308339454122,6891.0967692012555,0.9949210701519056,-3.26559196023495e-05,0.0003163647159461974,0.1006576525394098
1.07,-1.112041928163792e-05,0.000574664981476514,-0.007117459144840313,-44.78119331690154,49.124688690477996,4.879979276101895,-1658989.962868587,5099864.638105035,3604126.910169616,-180.81287569303376,-4939.31018714792,6891.272910717923,0.9949228623736738,-3.27725133970522e-05,0.0003177962235548548,0.10063993172542662
1.075,-5.478358946302153e-06,0.0005905781287830689,-0.007118878590833957,-44.77447292431785,49.1065896103772,4.866832564306758,-1658990.8662255944,5099839.941549594,3604161.3669743184,-180.52992718869547,-4939.311989421935,6891.448970391017,0.9949246525091723,-3.2950413655652105e-05,0.00031922221078666636,0.10062222836408068
1.08,-6.453263483231644e-06,0.0005796626573444501,-0.007135410527097871,-44.766513612171515,49.08428559280589,4.865338957916825,-1658991.7681679865,5099815.244985064,3604195.8246590784,-180.24702970063063,-4939.313822494935,6891.624933645108,0.9949264426723241,-3.311828451495258e-05,0.0003206891980479089,0.10060452143423829
1.085,-7.6507803280432e-06,0.0005846367074456208,-0.007118849639637169,-44.752977377065186,49.05781975242369,4.869195282831839,-1658992.6686960892,5099790.548411424,3604230.2832234553,-179.964211313024,-4939.315633304526,6891.800817028371,0.99492823668412,-3.328584814920839e-05,0.0003221287884104163,0.10058677335377507
1.09,6.5084555438318505e-06,0.0005779092605220481,-0.007129506439838164,-44.743546697293965,49.03993492666614,4.856546435491027,-1658993.567810396,5099765.851828834,3604264.742667056,-179.681511393698,-4939.317402658324,6891.976623223205,0.9949300262093221,-3.345762785328424e-05,0.00032358045096944794,0.10056906643395182
1.095,1.1625186438305185e-05,0.0005704410397196767,-0.007089014235310826,-44.7292652694632,49.01274649521093,4.857896150412866,-1658994.4655113616,5099741.155237311,3604299.2029894576,-179.39887489134603,-4939.319206870093,6892.152337503094,0.9949318181028065,-3.3592506112633004e-05,0.00032501893913923735,0.10055133296419676
1.1,2.658401506642688e-06,0.000583622987002333,-0.007103489387723287,-44.72106411279137,48.9919723877842,4.860926540353651,-1658995.3617994445,5099716.4586368445,3604333.6641902146,-179.11635826885447,-4939.3209793433725,6892.327965255723,0.9949335995075889,-3.3712747114630875e-05,0.0003264401409153089,0.10053370017639776
1.105,-1.3095124243476737e-06,0.0005851977838995626,-0.007135276619851458,-44.70732384098423,48.96846493795597,4.859578722591439,-1658996.2566751523,5099691.762027607,3604368.126268958,-178.83392484335005,-4939.3227156829125,6892.503532148385,0.9949353842237524,-3.385861638299336e-05,0.00032789187561344034,0.1005160313584166
1.11,1.160614169653587e-05,0.0005732803361307331,-0.0071017200584600915,-44.68901947837039,48.94588204670041,4.8529126411066645,-1658997.1501389614,5099667.065409723,3604402.589225337,-178.5515987601414,-4939.324438220964,6892.679019433741,0.9949371766087992,-3.401477697325852e-05,0.00032934652747180663,0.10049828344589301
1.115,-7.708757837812721e-06,0.0005782073258309087,-0.007096481916297873,-44.68438462628529,48.92547548501535,4.856440846970282,-1658998.0421914384,5099642.368783179,3604437.0530589353,-178.26939201768252,-4939.326179417745,6892.854419797349,0.9949389602566229,-3.413579005461683e-05,0.0003307747843018084,0.1004806189583852
1.12,-2.15055333515138e-05,0.0005587388441979681,-0.0070981688793142405,-44.67745228822987,48.905016385779405,4.851213952497325,-1658998.9328330494,5099617.67214804,3604471.517769383,-177.98725244795548,-4939.327876055177,6893.029759238375,0.994940742267444,-3.430607932612099e-05,0.0003322104446763294,0.10046296748365056
1.125,4.0087690750344135e-06,0.0005897012879444701,-0.007096785592497279,-44.66330691100281,48.88401124404152,4.852089844371137,-1658999.8220641285,5099592.975504432,3604505.9833563184,-177.7051791962416,-4939.329567228124,6893.205014942386,0.9949425244017001,-3.450579776940646e-05,0.000333594214674469,0.10044531179414222
1.1300000000000001,1.3178329891856052e-05,0.0005670079676951728,-0.007096065858379933,-44.65576405193714,48.85896910649904,4.843134085911907,-1659000.7098851101,5099568.278852407,3604540.449819375,-177.42321341857192,-4939.33124243238,6893.38020769851,0.9949443058496734,-3.4649826967744886e-05,0.0003350614062962292,0.10042765948958016
1.135,5.394712350429945e-06,0.0005795697998161208,-0.0070926763042368415,-44.643712880015904,48.834288031129795,4.8532908071061795,-1659001.596296444,5099543.582192007,3604574.9171581147,-177.14132014351287,-4939.332917561979,6893.555288186406,0.9949460868215118,-3.4765349953817115e-05,0.0003364744535936002,0.10041000893772216
1.1400000000000001,1.1462606941888807e-05,0.0005732217479299584,-0.007092824802680433,-44.63164913921702,48.80993467704727,4.8395272137834295,-1659002.4812986031,5099518.885523395,3604609.3853721227,-176.8595434727934,-4939.3345273620125,6893.730315032502,0.9949478666162258,-3.490338411136098e-05,0.00033791679306054595,0.10039236679058725
1.145,-6.152742453494221e-07,0.0005808445355965457,-0.007112025914443629,-44.62266157671073,48.7822823746318,4.835314559707471,-1659003.364892092,5099494.18884666,3604643.854460967,-176.57785215489827,-4939.336166867756,6893.905222678809,0.9949496461392049,-3.502473204648052e-05,0.0003393448653816306,0.10037472423773579
1.1500000000000001,-5.888579738090437e-06,0.0005751118611628463,-0.007083508697766083,-44.611966842543836,48.76697198798218,4.846883959272802,-1659004.2470773489,5099469.492161781,3604678.324424078,-176.29625057303187,-4939.33778455694,6894.080021888878,0.9949514301571681,-3.5178051307035905e-05,0.00034078886585348013,0.10035703390226004
1.155,-3.921326921021794e-06,0.0005804149714052252,-0.007089689418647915,-44.59896570324363,48.73733907604985,4.830957581648097,-1659005.1278548366,5099444.795468944,3604712.795261154,-176.01474448551113,-4939.339350099341,6894.254808351253,0.9949532067094401,-3.5343024682165386e-05,0.0003422172863604556,0.10033941447308645
1.16,-1.3281702745419753e-05,0.0005744665625335854,-0.007084472449907217,-44.591084237481375,48.704197935693266,4.834281229795105,-1659006.0072250343,5099420.09876821,3604747.2669717968,-175.7333346315871,-4939.340943653267,6894.42944886067,0.9949549844934072,-3.5504440300195796e-05,0.00034365939056203216,0.10032177963623765
1.165,2.2064243761708895e-05,0.0005856659431328291,-0.007073844676478925,-44.582833346956555,48.68964368370625,4.827878057712368,-1659006.8851884436,5099395.402059673,3604781.739555366,-175.4520290606621,-4939.342470808272,6894.603978779853,0.9949567606588078,-3.568764241890074e-05,0.0003450843514965331,0.10030415775287962
1.17,1.887027746697802e-05,0.0005798224957609227,-0.007071080254411952,-44.573672927473474,48.669842508188204,4.8302831865596305,-1659007.761745475,5099370.705343463,3604816.2130114296,-175.1707835444588,-4939.344013354597,6894.778446688398,0.9949585338389446,-3.578572449766386e-05,0.00034654603388251207,0.10028656224183864
1.175,1.978903314740716e-05,0.0005696307198046817,-0.007069507031194374,-44.55044030210986,48.636007343465664,4.824289522540794,-1659008.6368964913,5099346.008619614,3604850.687339688,-174.88962290132974,-4939.345526328987,6894.952856670211,0.9949603060176107,-3.589028378210813e-05,0.00034799238065741,0.1002689735787358
1.18,-4.98061867011941e-07,0.0005421891417120364,-0.0070906765973181,-44.54030316848195,48.61652789144079,4.827882471739348,-1659009.5106421101,5099321.3118882,3604885.1625396796,-174.6086246668739,-4939.347039400531,6895.127139832387,0.9949620774979485,-3.5990001575683275e-05,0.00034941360673944,0.1002513887974504
1.185,-2.238883897368852e-05,0.0005684252843287034,-0.007074770267712711,-44.54103312040307,48.58929023157021,4.811395446901254,-1659010.3829829632,5099296.615149299,3604919.6386109553,-174.32771661395765,-4939.3485209587925,6895.301370474884,0.9949638539924837,-3.613332243498984e-05,0.0003507614879590967,0.10023375134746419
1.19,-1.1096372244350438e-05,0.0005649273147657096,-0.007057116883588703,-44.53078974410084,48.56637134911922,4.818585757754383,-1659011.2539193502,5099271.918402971,3604954.115553011,-174.04683812183907,-4939.350010124897,6895.475451956148,0.9949656261622843,-3.633765503195585e-05,0.000352169145052126,0.10021615344824177
1.195,3.4422427713151595e-06,0.0005852779897383503,-0.0070672894322896555,-44.51011254048855,48.53925713444883,4.810126896977598,-1659012.1234515982,5099247.221649331,3604988.593365334,-173.76606105795904,-4939.35144595683,6895.64947706794,0.9949673936008294,-3.65130066518581e-05,0.00035357093195851605,0.10019859941919733
1.2,3.0773400737370306e-06,0.0005645649447761039,-0.007063642273853357,-44.49696400234813,48.51631044570907,4.8076034346119565,-1659012.9915802998,5099222.524888461,3605023.07204751,-173.48541965421862,-4939.352901813826,6895.823393588271,0.9949691632586947,-3.665730140520061e-05,0.0003550269803426258,0.10018102004061769
1.205,-9.971353066478485e-06,0.0005754981744560469,-0.007050426589126123,-44.48618023406879,48.49703527242285,4.811792971140328,-1659013.8583060498,5099197.828120336,3605057.5515990667,-173.20488028875445,-4939.3543484419415,6895.997228862539,0.9949709317089789,-3.679731294233068e-05,0.0003564314154561241,0.10016344970482151
1.21,-3.454145514873788e-06,0.0005580699003477594,-0.007078560939414047,-44.475464976251935,48.4675188735111,4.797208794453184,-1659014.7236293363,5099173.131345057,3605092.0320196752,-172.92443436724696,-4939.355762990914,6896.171014605628,0.994972696527282,-3.697250814264726e-05,0.0003578597797827138,0.1001459122213219
1.215,1.8557030949753956e-06,0.0005815641499701526,-0.007058086692258116,-44.46938827857186,48.45021443334911,4.802790002355851,-1659015.587550612,5099148.434562661,3605126.5133088534,-172.6440758362162,-4939.357195758053,6896.344656639213,0.9949744680932795,-3.712715396678621e-05,0.0003592464214334943,0.10012830471988791
1.22,-9.53724131008373e-06,0.0005850831248451264,-0.007052481885698854,-44.460028103700125,48.42426219093335,4.800701673989791,-1659016.4500702713,5099123.737773206,3605160.995466138,-172.3637878753327,-4939.358585873656,6896.518257159575,0.9949762342008311,-3.727445457998005e-05,0.0003606928344833936,0.1001107481084182
1.225,-1.7981576488860395e-05,0.0005573729685448796,-0.007020351631984299,-44.44332622520852,48.407961812862446,4.791442010370644,-1659017.311188718,5099099.040976866,3605195.4784911866,-172.0835908752014,-4939.359950360771,6896.691762287452,0.9949779985897345,-3.745097011778363e-05,0.00036214514979305624,0.10009320541715919
1.23,-7.509834877958541e-06,0.000580693817741802,-0.007038204030425159,-44.433569233123166,48.37233080625283,4.797536983581504,-1659018.1709064234,5099074.344173603,3605229.962383585,-171.80349124110504,-4939.3613546849,6896.865197206333,0.9949797546529608,-3.7641527377756104e-05,0.00036352642745711254,0.10007574262720079
1.235,-3.860859203274214e-06,0.0005543133227608003,-0.007042910676131702,-44.425627361312145,48.339989046399396,4.785744814878205,-1659019.029223932,5099049.647363517,3605264.4471428795,-171.52351216395385,-4939.362679692441,6897.038520549541,0.9949815148531755,-3.781188755158656e-05,0.00036496833267851247,0.10005823538748546
1.24,-1.598742797832092e-05,0.0005809372801878164,-0.007036828246997594,-44.40652098410579,48.317418479480416,4.790145703399636,-1659019.886141754,5099024.950546819,3605298.9327684166,-171.24361664423083,-4939.3639996995935,6897.211694196909,0.9949832759448934,-3.79665763852625e-05,0.00036634552985421336,0.10004071640817032
1.245,1.0385624492978852e-05,0.000583582162582651,-0.007036288703244605,-44.39907499989454,48.29484256088572,4.784086895535295,-1659020.7416604406,5099000.2537235785,3605333.4192596828,-170.96385803593435,-4939.3652962144115,6897.384812302232,0.9949850351796498,-3.815808266867754e-05,0.0003677859205973984,0.10002321253603347
1.25,2.0956415114128646e-05,0.0005619125546447776,-0.007028220496200846,-44.38928851462012,48.27040621895679,4.783405692504029,-1659021.595780512,5098975.556893872,3605367.9066163036,-170.68417059078146,-4939.36658656089,6897.557835991898,0.9949867939695581,-3.828464783684318e-05,0.00036923948511704765,0.10000570995032514
1.2550000000000001,1.9459168430803465e-05,0.0005590427075691022,-0.007021062471915535,-44.368602125238986,48.23883614880079,4.777891100874765,-1659022.4485023762,5098950.8600577805,3605402.39483783,-170.40457505726667,-4939.367850026667,6897.7307746857405,0.9949885504537427,-3.837949334135767e-05,0.0003706417907082691,0.09998822739521668
1.26,-8.151633757040991e-06,0.0005935796973106617,-0.007043036228622896,-44.35526856881168,48.21928494477901,4.779780700820388,-1659023.2998266313,5098926.163215376,3605436.883923754,-170.12512691304343,-4939.36911155992,6897.903594833571,0.9949903048423269,-3.847733918226779e-05,0.00037203658394119673,0.09997076261611752
1.2650000000000001,-5.48184362882133e-06,0.0005498955544474701,-0.007037060357010105,-44.33948980142334,48.19045029388251,4.777410407080089,-1659024.1497539012,5098901.466366711,3605471.373873641,-169.84578111153772,-4939.370354553151,6898.076359899478,0.9949920643783837,-3.865251837302355e-05,0.0003735103841871353,0.0999532431690845
1.27,-6.049887693641888e-06,0.0005570525820513373,-0.0070236457003815195,-44.32723289860466,48.17219559313438,4.768676693345978,-1659024.9982847536,5098876.769511877,3605505.8646870963,-169.56655981060345,-4939.371579473782,6898.249022293511,0.9949938221519713,-3.881013499223972e-05,0.00037487618859080634,0.0999357385574754
1.2750000000000001,-1.3997566372192908e-05,0.0005689186022203696,-0.007023161255629621,-44.31797935002852,48.137593180474944,4.768709114504408,-1659025.8454197033,5098852.072650856,3605540.3563636625,-169.28742004216616,-4939.372828534293,6898.421604264116,0.9949955762580164,-3.8970940135241725e-05,0.0003762596552553854,0.09991826728339266
1.28,-1.839097672595052e-05,0.0005384371275150525,-0.007007729611781956,-44.29966883983418,48.10656999444844,4.776906897143973,-1659026.6911592255,5098827.375783727,3605574.8489028267,-169.00838887590507,-4939.3740234412,6898.594061430944,0.994997329922383,-3.915447865371259e-05,0.00037767065314864794,0.09990079718967783
1.285,-1.0631043837069705e-05,0.000560392534347121,-0.007010233470704775,-44.29055557226023,48.08251503564111,4.765945281351264,-1659027.5355039753,5098802.67891077,3605609.342304077,-168.72951102082587,-4939.37515876594,6898.766438611482,0.9949990794530416,-3.934131835974067e-05,0.0003790047327077105,0.09988336545828443
1.29,1.2551975186226578e-05,0.0005619975817487076,-0.007006011949651188,-44.27299041233941,48.061601063027204,4.761751133859594,-1659028.378454523,5098777.982032106,3605643.8365669306,-168.45070807738944,-4939.376307221825,6898.938702928063,0.9950008292815148,-3.951434006064915e-05,0.00038039536364792374,0.09986592745817921
1.295,-5.7462051075090195e-06,0.0005772552456082256,-0.006997100390811909,-44.26659428528029,48.0311071881507,4.754028932104826,-1659029.2200113458,5098753.285147672,3605678.3316909205,-168.17202104600375,-4939.37746662338,6899.110893028221,0.9950025777494004,-3.963009065072705e-05,0.000381795775430625,0.09984849990605942
1.3,-1.7107685829852698e-05,0.0005682321306914534,-0.007020481648618039,-44.255040739872875,48.00997300745706,4.762301406351981,-1659030.0601749294,5098728.58825749,3605712.8276755307,-167.89341243632776,-4939.378605966159,6899.282950954436,0.9950043236695214,-3.9795158201115396e-05,0.0003832295739010312,0.09983109450665861
1.305,1.825221321811039e-07,0.0005497362169084683,-0.00699834926973791,-44.23360219644156,47.984155797159985,4.753642775792995,-1659030.8989457334,5098703.8913617395,3605747.3245203174,-167.61490915450563,-4939.379694280579,6899.454963683413,0.9950060751250704,-3.998625797768556e-05,0.0003846380892583135,0.09981363092705411
1.31,1.138516422391767e-06,0.0005618942276114169,-0.006986143149713894,-44.22554555819712,47.95677349198818,4.755580659358497,-1659031.736324362,5098679.194460484,3605781.822224909,-167.33654220987341,-4939.380807777636,6899.62687296624,0.9950078207698645,-4.012971144382548e-05,0.00038600491233885416,0.09979622235645567
1.315,5.263139853319212e-06,0.0005632892945334545,-0.0070032279317999305,-44.21627139078206,47.92786773815513,4.754069308205912,-1659032.5723113872,5098654.497553781,3605816.320788819,-167.05826793666398,-4939.381873697707,6899.798691057434,0.9950095630517422,-4.027380837293083e-05,0.0003874022183261491,0.09977884411598945
1.32,-1.2533795676811282e-05,0.0005512652626114536,-0.006984326278328296,-44.199422240001766,47.902813454710824,4.740965047222398,-1659033.4069072823,5098629.800641835,3605850.8202115544,-166.7800900869739,-4939.382904592374,6899.970403111795,0.9950113092882054,-4.040800973236519e-05,0.000388804021611759,0.09976142334187586
1.325,-1.3628866303452841e-05,0.0005641285512034818,-0.006992251369639038,-44.18937672491906,47.882922486917224,4.741739234506984,-1659034.2401125596,5098605.103724646,3605885.3204925586,-166.5020208761909,-4939.383970501784,6900.141998590092,0.9950130505143052,-4.058346425072865e-05,0.0003901714779487889,0.09974404957398172
1.33,-7.136023289808188e-06,0.0005651700213752743,-0.006991788568195592,-44.174370474695806,47.85794226439269,4.732023306229629,-1659035.0719277076,5098580.406802184,3605919.821631384,-166.2240383191011,-4939.385014695939,6900.313531653718,0.9950147933983089,-4.076485810213943e-05,0.00039157065814500463,0.09972665606128896
1.335,-1.6019358110130248e-05,0.0005815628199194695,-0.007003334524750364,-44.16756783305055,47.81529326226239,4.741540916409894,-1659035.9023532043,5098555.709874455,3605954.323627604,-165.9461603242845,-4939.3860769496705,6900.4849563714315,0.9950165358605584,-4.093035995665965e-05,0.00039297404773733674,0.09970926366269924
1.34,-1.1765632408274663e-05,0.0005720109503876192,-0.006980705598448512,-44.14888163841346,47.80201383704938,4.736655399799213,-1659036.731389621,5098531.012941702,3605988.8264806154,-165.66840640709069,-4939.3870240463,6900.656248016585,0.9950182808773333,-4.112205708900344e-05,0.0003944159994142592,0.09969184251939543
1.345,-7.428619213988753e-06,0.0005591951348757248,-0.007010378635161662,-44.134984987531226,47.76598675259639,4.725552636170307,-1659037.5590375343,5098506.316004131,3606023.3301899736,-165.39075882495965,-4939.388004588874,6900.827495390878,0.9950200199580648,-4.130076994991524e-05,0.00039583525273859886,0.09967447763269913
1.35,2.2124983770913294e-05,0.0005516704366334752,-0.006979085846119029,-44.116450632775134,47.7487957980776,4.72435123919946,-1659038.3852975033,5098481.619061667,3606057.834755174,-165.11322879521757,-4939.388980944046,6900.998584725065,0.9950217661397089,-4.146553010052361e-05,0.0003972237036185723,0.09965703889918429
1.355,9.145758642856633e-06,0.0005818275142793935,-0.006979799167598781,-44.10092417333545,47.717757341158304,4.726535359180449,-1659039.2101701156,5098456.922114297,3606092.340175696,-164.8358161442613,-4939.389966927058,6901.169624060328,0.9950235042293336,-4.155486824432463e-05,0.0003986008025853124,0.09963967794894998
1.36,1.1350167413558014e-05,0.0005593100823640875,-0.006960202146499502,-44.09600465866105,47.690614993448136,4.721551527812427,-1659040.0336559971,5098432.225162102,3606126.8464511666,-164.55853648695302,-4939.390911137912,6901.340564109721,0.9950252421603066,-4.1684005775150136e-05,0.00040004968574394815,0.09962231520355144
1.365,6.912931517957064e-06,0.000551046260598601,-0.006986982683213544,-44.089195083826084,47.656208511513825,4.717394777851316,-1659040.8557556535,5098407.528205251,3606161.3535810565,-164.28132603344574,-4939.391829077834,6901.511391969587,0.9950269749291313,-4.1802031991104045e-05,0.00040144310631041357,0.09960500117667011
1.37,1.090053843619645e-05,0.0005605662433053249,-0.006971631456392416,-44.0686932318945,47.630632811814756,4.709598858590395,-1659041.676469487,5098382.831243917,3606195.8615647415,-164.00420729981016,-4939.392704636114,6901.682081950324,0.9950287140701236,-4.192906520001028e-05,0.0004028148622142391,0.09958762050624823
1.375,-5.7418453817892916e-06,0.0005719928380920909,-0.00694696684941453,-44.04023495892996,47.60370423765252,4.710563029048018,-1659042.4957980583,5098358.134278154,3606230.3704016237,-163.72722127439346,-4939.393600493318,6901.852670988159,0.9950304490751158,-4.204853365941532e-05,0.00040421129403489634,0.09957027798758045
1.3800000000000001,-1.267071422048962e-06,0.000562027519434984,-0.006970103136420497,-44.03662763885923,47.572818467564666,4.715832869379173,-1659043.3137421547,5098333.437307915,3606264.8800912625,-163.45041733431836,-4939.394495250917,6902.023184586088,0.9950321776239666,-4.221222075138531e-05,0.00040563201013256114,0.09955299680927689
1.385,2.468010296371074e-06,0.0005502516333901128,-0.006942247441496069,-44.029500554271536,47.54901184978917,4.711578017882157,-1659044.1303024394,5098308.740333397,3606299.39063322,-163.17369651614882,-4939.395312006403,6902.193598316351,0.9950339116384823,-4.236231973900619e-05,0.00040702904782615265,0.09953565804378396
1.3900000000000001,1.2192237578956094e-05,0.0005496922349127161,-0.006952617340926696,-44.00764838121375,47.5202606152073,4.701195587867632,-1659044.945479305,5098284.043354837,3606333.9020270086,-162.89704972535557,-4939.396111795595,6902.363917205028,0.9950356384309388,-4.250016873469342e-05,0.00040839772426559814,0.0995183885388453
1.395,1.3375881713866133e-07,0.0005573629344612698,-0.006949173214150042,-43.994493991181415,47.50335089364979,4.70090268058391,-1659045.7592732895,5098259.346372214,3606368.414272092,-162.62054400603284,-4939.3969374672215,6902.534116040428,0.9950373675029371,-4.261369924724588e-05,0.000409767427274284,0.0995010931977793
1.4000000000000001,1.9407615509955652e-05,0.0005520902808242878,-0.006937523121163225,-43.973836338815715,47.46683280335666,4.704534911241494,-1659046.5716849796,5098234.649385474,3606402.927368042,-162.34413210038065,-4939.397758717265,6902.704264041602,0.9950390954066809,-4.275913091850512e-05,0.00041115321252753137,0.09948380640559931
1.405,-1.721301145358768e-05,0.0005698157231839792,-0.0069540102643849125,-43.971418876798566,47.430482739008745,4.7068646274375,-1659047.3827150294,5098209.952394751,3606437.4413144486,-162.0678877930514,-4939.398530303529,6902.874298643989,0.9950408201186823,-4.285529364040744e-05,0.00041253067625177846,0.09946654854474946
1.41,1.847493833078454e-05,0.000545029959877257,-0.006939082642373036,-43.94873788212175,47.406644321670576,4.687942889120128,-1659048.1923640668,5098185.2554003745,3606471.9561107005,-161.79172721655445,-4939.399220425402,6903.044201949898,0.9950425486062902,-4.304697862108121e-05,0.0004139431256127524,0.09944924967612971
1.415,4.351447729623026e-06,0.0005453684905607856,-0.006932968593216084,-43.93598964491784,47.38048901790329,4.687162113146102,-1659049.0006326141,5098160.558402366,3606506.47175616,-161.51569165930064,-4939.399983065237,6903.213981945502,0.9950442731100051,-4.314370825555317e-05,0.00041530279208140143,0.09943198787710654
1.42,-8.545316506808645e-06,0.000556909969194508,-0.006928637903594054,-43.919487226822575,47.35147187833031,4.691076891975027,-1659049.8075212531,5098135.861400605,3606540.9882502942,-161.23976396643073,-4939.400721067,6903.383671806778,0.9950459957909775,-4.327564942705894e-05,0.00041665979039954263,0.09941474127200288
1.425,3.852548002368186e-06,0.000545595244724284,-0.006931229579818366,-43.90750266228594,47.3260166910884,4.687999830192284,-1659050.6130305934,5098111.16439526,3606575.5055926642,-160.9639721248196,-4939.401417018143,6903.55327608737,0.995047717081569,-4.344253674124046e-05,0.0004180422944943836,0.0993975054221373
1.43,8.507608825281568e-06,0.0005855192821969951,-0.006914129575541384,-43.89818415847995,47.30275643415955,4.6770072076403,-1659051.4171612249,5098086.467386474,3606610.0237828195,-160.68828049306143,-4939.4020974252535,6903.722786001333,0.9950494387287937,-4.357577394546775e-05,0.0004193997322466119,0.0993802630834167
1.435,1.2428583539479172e-05,0.0005524977101192612,-0.006928534696148132,-43.87851905970573,47.26426473426682,4.67900024441467,-1659052.2199135837,5098061.770374248,3606644.5428202497,-160.41266300505123,-4939.402793076194,6903.892186148176,0.9950511557861265,-4.370733232143181e-05,0.0004208576442658621,0.09936306324387457
1.44,1.0922619196132028e-07,0.0005597910433937597,-0.006920415506813948,-43.856698303701265,47.23127992710271,4.673016722045051,-1659053.0212882662,5098037.073358668,3606679.062704364,-160.13721001649918,-4939.403438837875,6904.061459415601,0.9950528761570336,-4.3820949103049134e-05,0.00042223438320072404,0.0993458275392843
1.445,6.364112004740988e-07,0.0005612737095578693,-0.006908972577477843,-43.84395232020772,47.202791988707666,4.671786957922604,-1659053.821286069,5098012.376339863,3606713.583434531,-159.8619111049355,-4939.404083249416,6904.230607622507,0.9950545942022546,-4.3967014736423305e-05,0.00042362620633646427,0.09932861201449211
1.45,-1.0147101158044406e-05,0.000562391042654428,-0.006906366133993699,-43.8336308291717,47.182424534591874,4.673845103726731,-1659054.6199076558,5097987.6793179065,3606748.1050101877,-159.58672358588046,-4939.404699371975,6904.399654902131,0.9950563091051299,-4.41121249710229e-05,0.00042502184984839205,0.09931142492494956
1.455,1.0255589127243872e-05,0.0005451074459141279,-0.006894110876382085,-43.81828997647841,47.15574785028034,4.669751428825435,-1659055.4171535303,5097962.982292938,3606782.6274309284,-159.31162627483243,-4939.405287963777,6904.56864144932,0.9950580230597913,-4.4284335337765915e-05,0.00042641759572859157,0.09929424430082391
1.46,7.265128462532702e-06,0.0005688339404816508,-0.006878618280504673,-43.80028292236841,47.12236675742185,4.6607971840501765,-1659056.2130242088,5097938.285265045,3606817.1506963535,-159.03664506600916,-4939.405869006146,6904.737528509034,0.9950597336949244,-4.4401487570759446e-05,0.0004277754120581452,0.09927709411385387
1.465,-8.78108712971631e-06,0.0005536170386513319,-0.006880353159519657,-43.791680974922734,47.09669910537164,4.660185882581046,-1659057.0075203155,5097913.588234244,3606851.674805868,-158.76179764844227,-4939.406451646648,6904.9062774028625,0.9950614401623473,-4.453195118319466e-05,0.00042919151096761673,0.09925998243797686
1.47,9.741542292391604e-07,0.0005575028849720288,-0.006897717267023823,-43.768482472383724,47.05934571122629,4.661777908003953,-1659057.8006424066,5097888.89120061,3606886.1997588994,-158.48703872500542,-4939.407001505648,6905.074935117448,0.9950631467785269,-4.469855799632358e-05,0.0004305657733078288,0.09924286643567705
1.475,2.1192024942859725e-05,0.0005491462427617672,-0.006895452885050274,-43.752859433917735,47.036768468268036,4.649490374822858,-1659058.592391147,5097864.194164325,3606920.725554918,-158.21245751899536,-4939.4075128546065,6905.243472223385,0.9950648574026999,-4.484187989049246e-05,0.00043195212058057665,0.09922570719685496
1.48,-7.523642631467879e-06,0.0005428417521839466,-0.006906611817282431,-43.73902485381314,47.00683133051673,4.6423511399855055,-1659059.3827672303,5097839.497125396,3606955.252193358,-157.93797580170616,-4939.408058913851,6905.411903782561,0.9950665671787446,-4.493283111005803e-05,0.0004333226948067662,0.0992085535404675
1.485,1.4504580588307667e-05,0.000575559770595346,-0.006882761627138756,-43.71582120420549,46.97996044273372,4.642883478976479,-1659060.1717711831,5097814.800083751,3606989.7796736495,-157.66360529864298,-4939.40859878118,6905.580212823813,0.9950682794280084,-4.509366575812835e-05,0.00043467046208056,0.09919137212648052
1.49,4.528320729215661e-06,0.0005716053501485436,-0.006873262439227577,-43.701512775085966,46.94665877271464,4.64639305130086,-1659060.9594036774,5097790.103039433,3607024.3079952835,-157.38939244620167,-4939.40912846404,6905.748440891733,0.9950699854322814,-4.52077888726834e-05,0.00043610508609302203,0.09917424998662235
1.495,-2.6079789285336064e-07,0.0005410188088500609,-0.006875392055737567,-43.696181358448335,46.918200663696965,4.6465595954165,-1659061.74566544,5097765.405992604,3607058.837157793,-157.1153126109962,-4939.409603176424,6905.916562923337,0.9950716887882929,-4.534573886734605e-05,0.000437527400266274,0.099157151459453
1.5,-4.714327407894673e-06,0.0005675920364871828,-0.006874683179176282,-43.669221013640055,46.89252250882299,4.632218597915106,-1659062.5305570029,5097740.7089435235,3607093.367160655,-156.84131252234903,-4939.410028898969,6906.084581906057,0.9950733924093113,-4.548802278305793e-05,0.00043887243737637414,0.09914004761370857
1.5050000000000001,-2.1970904406435147e-05,0.0005361025207054662,-0.00684887982370176,-43.66245525782,46.86238078590969,4.634709290017623,-1659063.3140789485,5097716.011892168,3607127.8980033253,-156.5674656751825,-4939.4105134095635,6906.252486176565,0.9950750955291024,-4.564797105691609e-05,0.0004402824764082022,0.09912294550381118
1.51,-3.0283018976292454e-06,0.0005580449090193757,-0.006883287143637102,-43.63941447969996,46.827046233010705,4.638297137789975,-1659064.0962318901,5097691.314838538,3607162.4296852616,-156.29371098890206,-4939.410938829133,6906.42028820967,0.9950767919925992,-4.584301655646341e-05,0.0004416099058651425,0.09910590757783437
1.5150000000000001,-8.245220398787267e-06,0.0005519627960848906,-0.006839550786886065,-43.621846906340835,46.8073069095658,4.6203105237499145,-1659064.877016498,5097666.617782885,3607196.96220594,-156.02013217899153,-4939.411322136766,6906.587983175985,0.9950784966639046,-4.599641321938437e-05,0.00044299661046075895,0.09908878400422907
1.52,-3.3475984321257346e-06,0.0005375532226428952,-0.006863273384914173,-43.61055594048657,46.76677779582818,4.631050076418186,-1659065.6564334515,5097641.920725147,3607231.495564822,-155.74664914273833,-4939.411773059486,6906.755569705799,0.9950801902121749,-4.6161232866645076e-05,0.00044436689715969795,0.09907176921052373
1.5250000000000001,1.1428873473611228e-05,0.0005471415524798325,-0.00685527622691894,-43.591019167741074,46.735631062731215,4.623355367269399,-1659066.4344833433,5097617.22366542,3607266.0297613423,-155.47330767184928,-4939.412117679711,6906.923038477576,0.9950818893588272,-4.631032608278765e-05,0.0004457025473272603,0.09905469536907183
1.53,-3.85198334922634e-06,0.0005364561552955072,-0.00688194172791675,-43.584060125236675,46.708923308745774,4.628053939395981,-1659067.2111668736,5097592.526603959,3607300.5647948957,-155.2001043654525,-4939.41246710389,6907.090382795437,0.9950835862216725,-4.642502529812097e-05,0.00044706571041954856,0.09903764137530256
1.5350000000000001,9.492789068124517e-06,0.0005474398808683265,-0.0068603000551092225,-43.56571216429154,46.67760377177834,4.61036827310067,-1659067.9864846112,5097567.829540898,3607335.1006649653,-154.92699074318563,-4939.412756990877,6907.257645112534,0.9950852894016686,-4.657512298593801e-05,0.0004483985046759074,0.09902052103446221
1.54,-2.1657414907614413e-05,0.0005551595265825071,-0.006882502327297762,-43.54761136648213,46.64588577273534,4.612877671357275,-1659068.7604370816,5097543.132476285,3607369.6373709617,-154.65399741451796,-4939.413088231542,6907.4247533691505,0.9950869869180271,-4.669471746845898e-05,0.0004497619291941838,0.09900345448625855
1.545,-2.3029604723876953e-07,0.0005356375233000068,-0.0068604349539946865,-43.531759527604265,46.61599456754055,4.600446838904264,-1659069.53302495,5097518.435410115,3607404.1749122506,-154.38114991764976,-4939.413379775735,6907.591762208276,0.9950886896217793,-4.6893740486967153e-05,0.00045113684534003786,0.09898633270979453
1.55,8.477449387751575e-06,0.0005343004400025311,-0.006833982569612596,-43.51574878134108,46.59450798590734,4.604822216390517,-1659070.304248864,5097493.73834244,3607438.713288245,-154.10841569583388,-4939.413690147044,6907.758635443473,0.9950903865936301,-4.703460286519149e-05,0.00045246850110710273,0.09896926577954077
1.555,-1.0916916905689954e-05,0.0005450032362855444,-0.006827099868162855,-43.50855370864903,46.561019870278066,4.6060632627415306,-1659071.0741094083,5097469.041273283,3607473.2524984693,-153.83580204537037,-4939.413972766456,6907.92545433197,0.9950920767297156,-4.715344199756342e-05,0.000453798988052309,0.09895226461670006
1.56,-2.2349541969238204e-05,0.0005431167277407968,-0.006853995948407082,-43.478736500090264,46.53148244501906,4.602725917175481,-1659071.8426071303,5097444.344202865,3607507.79254249,-153.56328673495904,-4939.414194306886,6908.092154129242,0.9950937648567423,-4.732316892309679e-05,0.0004551513035540028,0.09893528056786983
1.565,1.4231368774699818e-05,0.0005567008741762784,-0.0068433468786175495,-43.46124032914367,46.494856929363365,4.605058298661416,-1659072.6097427432,5097419.647131309,3607542.3334197667,-153.29095841304473,-4939.414428099792,6908.25875647684,0.9950954593441252,-4.7520901168324505e-05,0.00045649609488257535,0.09891822959284968
1.57,1.2376049150381803e-05,0.0005609202840900387,-0.006855420002010568,-43.44905584356346,46.460516207979026,4.592513491751321,-1659073.3755170933,5097394.950058713,3607576.875129754,-153.0187816798211,-4939.414610352285,6908.425238412856,0.9950971508932861,-4.763097680022923e-05,0.00045788372744500475,0.09890120503738536
1.575,1.2272297943554503e-06,0.0005382252569133549,-0.0068129121823343585,-43.42967893715679,46.43541004668009,4.595912415203156,-1659074.1399308213,5097370.252985202,3607611.417671758,-152.74670949010527,-4939.414794038418,6908.591563305303,0.9950988451287933,-4.774672505828519e-05,0.000459281396508238,0.09888415041952342
1.58,-7.642238456153358e-06,0.0005435849948916229,-0.006811031858601092,-43.41435140457735,46.4046489404842,4.587930978121451,-1659074.9029845404,5097345.555910836,3607645.9610452144,-152.47477816945533,-4939.414952290266,6908.757819132415,0.995100528588291,-4.7884549491644715e-05,0.0004606198549183997,0.0988672015368248
1.585,-2.2978741825822816e-06,0.0005622882257790027,-0.006820561183790555,-43.396696244802705,46.363682479872,4.576965801818387,-1659075.6646788982,5097320.858835684,3607680.5052496316,-152.2029649430652,-4939.415108640835,6908.923947718335,0.9951022112853815,-4.804576153283897e-05,0.00046196945486570213,0.0988502573126219
1.59,-1.1711119977522416e-05,0.0005446017449654952,-0.006805278976803005,-43.38559943277229,46.339009665958834,4.580487004240021,-1659076.425014547,5097296.161759772,3607715.0502842534,-151.93129461307348,-4939.4152560904995,6909.089901124178,0.9951038960256292,-4.819831114183334e-05,0.00046336690332887405,0.09883328934447917
1.595,5.445265583792373e-06,0.0005126868227852116,-0.006812675508972035,-43.361764571407555,46.30098842689866,4.575962009363467,-1659077.183992102,5097271.464683227,3607749.5961484583,-151.65972730249544,-4939.415361677003,6909.255780772058,0.9951055767186687,-4.836989089480408e-05,0.00046471802792815494,0.09881635937897053
1.6,1.1115363376175381e-05,0.0005575856276918992,-0.0068043913284547486,-43.350958008565186,46.27742710194269,4.568407927412849,-1659077.9416122544,5097246.767606192,3607784.1428417107,-151.3883336468715,-4939.415452368512,6909.421520221409,0.9951072589880219,-4.849091389850996e-05,0.00046599399303384287,0.09879941096775675
1.605,-2.675487605645877e-07,0.0005367285771404582,-0.006775342182427426,-43.32846093104238,46.24815713163617,4.569064781870844,-1659078.697875652,5097222.070528694,3607818.6903634095,-151.11702545832617,-4939.415546818718,6909.587159172649,0.9951089388694826,-4.86089112871471e-05,0.00046738305733045905,0.0987824831248129
1.61,-7.675207653229996e-06,0.0005328425565687048,-0.006802505797779053,-43.312058486891765,46.21411233346053,4.5624410810538105,-1659079.4527829057,5097197.373450769,3607853.2387130745,-150.84587597677785,-4939.415623334246,6909.7527069021535,0.9951106113114692,-4.875004203492674e-05,0.0004687174263472299,0.09876562753671811
1.615,3.815201651087221e-06,0.0005161924472495706,-0.0067992156850434195,-43.2879877979726,46.187716963384275,4.569463618103028,-1659080.206334738,5097172.676372493,3607887.7878901386,-150.57485694306396,-4939.415687155413,6909.918118633102,0.9951122901757545,-4.890867368549933e-05,0.0004700402953116092,0.09874870435214544
1.62,3.775661468262207e-06,0.0005502958580179568,-0.006774380229071996,-43.277979080200296,46.1614504876674,4.562442738866455,-1659080.958531897,5097147.979293981,3607922.3378941095,-150.3040067132785,-4939.415717815008,6910.0834698628405,0.9951139679594024,-4.9034605395031955e-05,0.00047132457937813137,0.0987317893124698
1.625,4.408416199012287e-06,0.0005495377289421139,-0.006795707609441753,-43.267118755989564,46.12438524003143,4.549158470756377,-1659081.7093750234,5097123.282215331,3607956.8887245604,-150.0332438394895,-4939.415742234992,6910.248710406548,0.9951156392844948,-4.916902392084735e-05,0.00047269369854396345,0.09871493602533442
1.6300000000000001,-2.5423997245897287e-05,0.0005479220746177651,-0.006781716421865651,-43.24535053958901,46.08574150935081,4.548488057022372,-1659082.4588645913,5097098.58513657,3607991.440380785,-149.7625833243188,-4939.41576189926,6910.4137795380975,0.9951173155856818,-4.9301706378739716e-05,0.0004740610850418837,0.09869802965093019
1.635,1.9515665741932884e-06,0.0005210317608484884,-0.006797327174679045,-43.225010047885846,46.06021760499385,4.549129110611462,-1659083.2070012826,5097073.888057801,3608025.9928620216,-149.49209318954794,-4939.4157457459905,6910.578714989607,0.9951189881443402,-4.950819046383367e-05,0.00047541709271178617,0.09868115809064855
1.6400000000000001,-1.3269427426353786e-05,0.0005524672142733308,-0.0067756317840528745,-43.205254371473735,46.03097327851806,4.544945618425313,-1659083.9537858788,5097049.190979146,3608060.54616774,-149.22174531107842,-4939.415715928355,6910.743572554177,0.995120664301081,-4.9639954311968936e-05,0.0004767129542879943,0.09866424763615915
1.645,-2.3581737539437087e-06,0.0005394954866225762,-0.0067609801603380265,-43.18426214666043,45.99571135585494,4.544142893874494,-1659084.699219086,5097024.493900653,3608095.1002974794,-148.9515374912996,-4939.415681695605,6910.908323150176,0.9951223347788283,-4.981731299208442e-05,0.0004780832691719488,0.098647391141159
1.6500000000000001,-1.5252755415992306e-05,0.0005325019557387002,-0.006744468157650696,-43.16488603669601,45.96359453540989,4.542149432490713,-1659085.4433016556,5096999.796822403,3608129.6552506695,-148.6814903322026,-4939.415618346793,6911.072952757852,0.9951240013733063,-4.9964309997809044e-05,0.00047942400551989975,0.09863057105670023
1.655,-5.35651214714569e-06,0.000528199538476208,-0.0067526661404254075,-43.14654624205957,45.92128417713726,4.549941212290292,-1659086.1860343548,5096975.09974452,3608164.211026725,-148.41158942477682,-4939.4155345003755,6911.237469493798,0.9951256636176911,-5.014164202796428e-05,0.0004807441657169096,0.09861379203900894
1.6600000000000001,1.4886778764531993e-06,0.0005146418756662358,-0.006753189975535033,-43.134448801460664,45.901425355002154,4.53289575273508,-1659086.9274179805,5096950.402667269,3608198.7676250446,-148.14186081524193,-4939.415365991739,6911.401858416044,0.9951273276045651,-5.029330318826064e-05,0.0004820560608991873,0.09859699258666206
1.665,-9.444530160507376e-06,0.0005432236105480316,-0.00674935943764584,-43.117039122154836,45.86397774664931,4.529243452319683,-1659087.667453144,5096925.7055907305,3608233.3250450315,-147.87220456501342,-4939.4152496764145,6911.566136259519,0.9951289914524449,-5.042459351434818e-05,0.00048333591416336555,0.09858019179629496
1.67,3.824060657294412e-06,0.0005235200051678567,-0.0067434393477574985,-43.10442501605252,45.83371043082515,4.519480381950432,-1659088.406140388,5096901.008514849,3608267.883286055,-147.60269305560752,-4939.415103091566,6911.73027328734,0.9951306540351449,-5.059012306037417e-05,0.0004846841795600419,0.09856340051697864
1.675,7.232815598225635e-06,0.0005411388121740797,-0.006738365792232257,-43.083657586353766,45.80199263678424,4.515938017763724,-1659089.143480331,5096876.311439698,3608302.442347433,-147.33328410464964,-4939.4149570523405,6911.894277708271,0.9951323148997905,-5.0717780328950554e-05,0.00048598669590603776,0.0985466239240211
1.68,-2.3410232171488602e-05,0.0005259896403036979,-0.006759171754337993,-43.053641423201526,45.764948725455206,4.52017850043185,-1659089.8794736033,5096851.614365305,3608337.002228546,-147.06402490132467,-4939.41480033279,6912.058167614248,0.9951339742091283,-5.084129169824268e-05,0.00048733388517017767,0.09852985991867397
1.685,1.2816009824612389e-05,0.0005627021502547681,-0.006754317663194007,-43.04834600747543,45.735069805221826,4.51524211739244,-1659090.614121107,5096826.917291782,3608371.562928842,-146.79497647352673,-4939.414608833715,6912.221950615383,0.9951356383729991,-5.10373316319461e-05,0.000488635834873186,0.09851304416256321
1.69,-1.0836545248936532e-05,0.0005318668255202624,-0.006767491494363369,-43.02733484164538,45.701358572458204,4.500566366087488,-1659091.347423556,5096802.220219297,3608406.1244477434,-146.52600321159014,-4939.41438484068,6912.385610131075,0.9951373010153721,-5.115228221289371e-05,0.0004900380417662179,0.09849624040542017
1.695,1.0643934093105416e-05,0.0005472543185805748,-0.00675595262391129,-43.00620023792187,45.667687206369,4.508622710771996,-1659092.0793814892,5096777.523147861,3608440.6867845594,-146.25717003204326,-4939.414189888251,6912.549116106446,0.995138966650266,-5.1318499858977186e-05,0.0004913577091597044,0.09847940387844642
1.7,7.696386199077222e-06,0.0005438934175502534,-0.006729725187782304,-42.99409349896179,45.644731849356845,4.499763873166173,-1659092.8099956808,5096752.826077549,3608475.2499386803,-145.98850661852217,-4939.413934801571,6912.712532354038,0.9951406291419825,-5.1435051538835155e-05,0.0004927209480891392,0.09846259600174061
1.705,-5.024791193145923e-06,0.0005522762374773223,-0.006730950228737695,-42.97312791708373,45.60737944674266,4.504520854300956,-1659093.5392667763,5096728.12900848,3608509.8139096308,-145.71993160402147,-4939.413692459992,6912.875847816454,0.9951422848967727,-5.155807665103141e-05,0.0004940751032692104,0.09844585335090336
1.71,-1.3861042747583408e-05,0.0005274802575520081,-0.0067324833142419,-42.95594177498015,45.57284938743287,4.496501759056567,-1659094.267195425,5096703.431940764,3608544.3786968733,-145.45152787648234,-4939.4133940783495,6913.039049186818,0.9951439406574668,-5.1714814850180325e-05,0.0004954469825291049,0.09842910763891778
1.715,-1.8205856803385015e-05,0.0005217657633157803,-0.006729360141504225,-42.93751866688505,45.530626818895136,4.491892761012613,-1659094.9937823873,5096678.734874557,3608578.944299769,-145.18325700472315,-4939.413088791699,6913.2021091381985,0.9951455965413176,-5.1887436673530905e-05,0.000496754998165741,0.09841235809892378
1.72,2.4867802309182203e-05,0.0005236476386939228,-0.006706485986036312,-42.911307359395614,45.50295197764745,4.496027511242109,-1659095.7190283863,5096654.037809965,3608613.510717559,-144.9151425922548,-4939.4127479780245,6913.365006914065,0.9951472513798075,-5.2069457967777964e-05,0.0004980477282230647,0.09839561630706008
1.725,-8.79394960400614e-06,0.0005455821923759646,-0.006715343745821463,-42.890179388031775,45.48333098803908,4.498079462192707,-1659096.442934255,5096629.340747128,3608648.0779496576,-144.64720497895192,-4939.412386602484,6913.52783238756,0.9951489003123698,-5.214475210323594e-05,0.0004993557386225286,0.09837893134127955
1.73,-7.848337258984261e-06,0.000521441177887557,-0.006731328209619791,-42.87251781915483,45.432250757762816,4.485880527607408,-1659097.1655007785,5096604.64368611,3608682.6459957594,-144.37940432177678,-4939.412020996522,6913.6906083515805,0.9951505511098109,-5.230919816522997e-05,0.0005007100390753131,0.0983622243498203
1.735,-8.834708565187608e-06,0.000536147887663445,-0.006710156815635197,-42.8579688156605,45.40691262572452,4.480900397263358,-1659097.8867286958,5096579.946626988,3608717.214855191,-144.11176266943264,-4939.411627738923,6913.853164262601,0.9951522055853408,-5.246537524500156e-05,0.0005020045099670602,0.09834547756499991
1.74,-1.6144917557383815e-05,0.0005345921215349239,-0.006708492227308643,-42.83695874991189,45.3774315672372,4.480333820574435,-1659098.6066186763,5096555.24956984,3608751.7845271574,-143.84422953347,-4939.411231404062,6914.015622429278,0.9951538545543328,-5.2627595559452296e-05,0.0005033353295169109,0.09832878342345185
1.745,-3.3833300096107567e-06,0.0005158612299819172,-0.006694157448789562,-42.81932239130607,45.339907537658746,4.477907384908251,-1659099.3251713677,5096530.552514716,3608786.3550111726,-143.57684696825444,-4939.410818192052,6914.177983557993,0.9951555028333641,-5.280761827951438e-05,0.00050466048156672,0.09831209340477048
1.75,4.767738564218201e-06,0.0005331382055037038,-0.006708495097686341,-42.79709165952504,45.30256385458071,4.464969974110988,-1659100.0423875144,5096505.8554617455,3608820.926306649,-143.3096117132472,-4939.410370007714,6914.3402070107195,0.9951571473334754,-5.2951269806138255e-05,0.0005059421715379379,0.09829543900803225
1.7550000000000001,-1.0610129364368977e-05,0.0005277253447467192,-0.006704506418437702,-42.77734638037494,45.26993210132773,4.465924284015239,-1659100.75826787,5096481.158410976,3608855.498412836,-143.04253055779895,-4939.409938034117,6914.5022678091345,0.9951587950551003,-5.3078906087208256e-05,0.0005072688457646366,0.09827874890040456
1.76,5.5421354667200885e-06,0.000530688659000173,-0.006677662476743735,-42.760584692623155,45.232730636691635,4.465780594170082,-1659101.472813201,5096456.461362447,3608890.0713290605,-142.77560182661284,-4939.409473313636,6914.664221973608,0.9951604415200463,-5.3243465923277477e-05,0.0005085782754431067,0.09826206870862031
1.7650000000000001,7.947652060196905e-07,0.0005386672330042855,-0.006686071398715081,-42.73690933636112,45.2027087092518,4.451865472482067,-1659102.1860242526,5096431.764316355,3608924.6450547287,-142.5088188073556,-4939.408963560002,6914.826045423075,0.995162081108816,-5.336853432970858e-05,0.0005098990488717328,0.09824545525330954
1.77,-1.8891056494071034e-06,0.0005266047545670575,-0.006688663990722279,-42.713176764623995,45.16133896466778,4.453178963224642,-1659102.8979017548,5096407.067272712,3608959.2195891785,-142.2421820821221,-4939.408493637509,6914.9877343866465,0.9951637224726531,-5.3507384094166176e-05,0.0005112385049521258,0.09822882085479467
1.7750000000000001,3.2655914615062334e-05,0.0005432014891444812,-0.006683949544493652,-42.70888186921304,45.14417029569956,4.4584050323190185,-1659103.6084465391,5096382.370231534,3608993.794931728,-141.97573165079518,-4939.407977492538,6915.149285373868,0.9951653642082977,-5.3649952176846336e-05,0.00051254729110588,0.09821217998356019
1.78,1.947348170864701e-05,0.0005237205373382541,-0.006671213813693458,-42.686290820463554,45.100127074143685,4.444622886881243,-1659104.3176592237,5096357.673193051,3609028.3710819213,-141.70934218766277,-4939.407415881957,6915.310792000563,0.9951670044899197,-5.371064418802892e-05,0.0005139058508407182,0.09819555076735056
1.7850000000000001,8.302161428612527e-06,0.000545719024763069,-0.006674247287415084,-42.65966586418234,45.0709452639383,4.440329584151703,-1659105.0255403772,5096332.9761573635,3609062.948039168,-141.44311922728488,-4939.406858985988,6915.472106644047,0.9951686413892032,-5.379933427041784e-05,0.0005152127089997508,0.0981789532285997
1.79,-7.89275939967857e-06,0.0005204315462804599,-0.006662371766646659,-42.63936530755592,45.03887269963338,4.442300519318844,-1659105.732090842,5096308.279124436,3609097.5258027334,-141.1770666615567,-4939.406311918409,6915.633319472702,0.9951702787244883,-5.3921221085174996e-05,0.0005165715551472676,0.09816234812673709
1.795,-9.336336089915706e-06,0.0005148584005119853,-0.00664964601015658,-42.623008098443286,45.00789231252012,4.431242622721221,-1659106.4373114319,5096283.58209433,3609132.1043721098,-140.91116926112957,-4939.405730424177,6915.794431152462,0.9951719128975831,-5.407717861249224e-05,0.0005178635150549955,0.09814577256715588
1.8,-4.142843435059604e-06,0.0005384108842139509,-0.006646108629588539,-42.60899587750229,44.97086913242312,4.428552723045173,-1659107.1412028314,5096258.885067103,3609166.683746704,-140.64539058712884,-4939.40516033482,6915.955406457923,0.9951735436780292,-5.423534371492486e-05,0.0005191412567411873,0.09812922864364558
1.805,2.8334598533817503e-05,0.0005266853348910757,-0.006652346787695451,-42.58134412380253,44.935639317349015,4.4325241037013825,-1659107.8437656618,5096234.188042828,3609201.2639258257,-140.3797415748792,-4939.404549949588,6916.116242311222,0.9951751732842034,-5.4386361112706575e-05,0.00052047886986795,0.09811269348369542
1.81,-3.31033742237655e-07,0.0005129342395513069,-0.006671407604176798,-42.56440580660933,44.90331341100456,4.427688603826252,-1659108.545000738,5096209.491021691,3609235.8449088708,-140.11428889386355,-4939.403904931382,6916.276975641765,0.9951768041633969,-5.4453708689517676e-05,0.0005217952756861159,0.09809614273564449
1.815,5.05901735765252e-07,0.0005173233739193605,-0.006650920192821407,-42.544176472850225,44.860518538221235,4.417461666801498,-1659109.24490888,5096184.794003816,3609270.4266952723,-139.84896792469323,-4939.4032448132775,6916.437584991261,0.9951784394533827,-5.458902722301623e-05,0.0005230704368661605,0.09807954457727767
1.82,-6.89630689051276e-06,0.0005281075283111315,-0.006644595806923281,-42.52418092133573,44.825266460031195,4.416632254772159,-1659109.9434908126,5096160.09698927,3609305.0092842733,-139.58380510439704,-4939.40257345131,6916.59801536269,0.9951800694366197,-5.4723312910787374e-05,0.000524356725841602,0.0980629973614305
