t_s,gyro_x_radps,gyro_y_radps,gyro_z_radps,accel_x_mps2,accel_y_mps2,accel_z_mps2,ins_pos_ecef_x_m,ins_pos_ecef_y_m,ins_pos_ecef_z_m,ins_vel_ecef_x_mps,ins_vel_ecef_y_mps,ins_vel_ecef_z_mps,ins_quat_w,ins_quat_x,ins_quat_y,ins_quat_z
0.0,-3.032292779140425e-06,0.0006174884688832913,-0.007402106294604683,-45.3032980926654,51.87030030544768,5.143978462059402,-1658763.5840503734,5105149.374697655,3596773.925093057,-242.6143302865707,-4938.608152381165,6852.28340073394,0.9945218953682734,0.0,0.0,0.10452846326765354
0.005,-1.259921336536716e-06,0.0006052531059321572,-0.007423305301658262,-45.29750372498739,51.857290696653,5.142022567038793,-1658764.7963942378,5105124.681645746,3596808.186974191,-242.32321545342876,-4938.612611320975,6852.469052845258,0.9945238295237936,-1.6890200574059643e-07,1.5344721037554702e-06,0.10451005935767786
0.01,-1.1077734634165977e-05,0.000613740579647272,-0.007411906183933949,-45.3192288179427,51.86791713102118,5.133032103849236,-1658766.0072826606,5105099.988571549,3596842.4497834747,-242.03215364007767,-4938.617067541647,6852.654660587179,0.9945257688742652,-3.302006323894205e-07,3.038986374597473e-06,0.10449160270427063
0.015,2.1663270244909583e-05,0.0006010250629770099,-0.007375903520709644,-45.32400228170095,51.86359867810482,5.143820771870463,-1658767.216715468,5105075.295475015,3596876.713520817,-241.7409694446783,-4938.621545890473,6852.840276433513,0.9945277049025764,-5.181265174600773e-07,4.562038484484562e-06,0.10447317435654645
0.02,2.303571620592811e-06,0.0006043532237995239,-0.0073944823234893455,-45.32097584589864,51.86242964816686,5.1374686675941446,-1658768.4246923702,5105050.602356227,3596910.9781862823,-241.44979140081756,-4938.62596930178,6853.025909684242,0.9945296311856798,-6.213263246419156e-07,6.0620271971931515e-06,0.104454835486642
0.025,-1.9064787262465788e-05,0.0006156956752028795,-0.007409321865015328,-45.32221413002621,51.857870019468685,5.130926236967074,-1658769.6312134154,5105025.909215232,3596945.2437798865,-241.15862663823862,-4938.63042856601,6853.2115318734295,0.9945315619790405,-7.73530004235783e-07,7.565235230013277e-06,0.10443645038825704
0.03,6.584794539306068e-06,0.000612177070380719,-0.007380811543866189,-45.3385794834975,51.84885934462254,5.140561186953577,-1658770.8362786372,5105001.216051891,3596979.5103015285,-240.867462064016,-4938.634907937744,6853.397125058819,0.9945334963037497,-9.818241458907228e-07,9.091065207428732e-06,0.1044180283582684
0.035,1.1128231406396988e-06,0.0006222981538452139,-0.00740496594812342,-45.336280679706135,51.84101711413526,5.145374180557574,-1658772.0398879396,5104976.5228663655,3597013.7777511,-240.57625891560508,-4938.639302302053,6853.582703412282,0.9945354228438522,-1.1254257041745291e-06,1.0614842522706856e-05,0.10439967717794316
0.04,2.406334712119603e-05,0.0006219112420879711,-0.007405926118829108,-45.335903041323924,51.84170568642107,5.131975254337708,-1658773.2420413177,5104951.829658931,3597048.046128544,-240.28509232675907,-4938.643671795911,6853.768274239681,0.9945373553458555,-1.2852746711812809e-06,1.2162356026303614e-05,0.10438126590579717
0.045,1.4626324214495068e-05,0.0005996112608777906,-0.007387530692550566,-45.335988251429725,51.84038641693794,5.139754349378564,-1658774.4427388355,5104927.136429491,3597082.315433779,-239.99391476105345,-4938.648103725691,6853.953819588059,0.9945392877552149,-1.3879598175355795e-06,1.3714896538992989e-05,0.1043628522096108
0.05,4.505212609992459e-06,0.0006289277373831398,-0.007384647301278802,-45.34088797948491,51.8388892768563,5.138844780218242,-1658775.6419805097,5104902.44317796,3597116.5856668027,-239.70275496728894,-4938.652509044821,6854.139390145779,0.9945412150234058,-1.5082898336746216e-06,1.5209529405653392e-05,0.10434448421533034
0.055,6.925743798262764e-06,0.0005929093726153136,-0.007384843780126423,-45.350197901448134,51.83468944738031,5.137975480777905,-1658776.8397663487,5104877.749904408,3597150.8568276702,-239.41158058211585,-4938.65691167543,6854.324956714724,0.9945431411968279,-1.6614319277899486e-06,1.67744131829445e-05,0.1043261233546288
0.06,-1.3729319552858323e-06,0.0005853754591281414,-0.00740697201695755,-45.360110910294466,51.8283072232065,5.13714903214467,-1658778.0360962423,5104853.056608888,3597185.1289163237,-239.12037688924525,-4938.661296178751,6854.510504665898,0.9945450670817126,-1.799161581932994e-06,1.8250373721164014e-05,0.10430776196965653
0.065,1.3366174983498794e-06,0.0005949242395668451,-0.007391288790349426,-45.3594222826855,51.82948318769739,5.139816044398238,-1658779.2309700476,5104828.363291508,3597219.401932647,-238.82914522827429,-4938.6656561927075,6854.696024731435,0.994546998395106,-1.955561148526181e-06,1.9705438071600424e-05,0.1042893455303886
0.07,1.557885734557179e-05,0.0006141659359780561,-0.007377055793985994,-45.361282966566336,51.815797554191995,5.143530588435563,-1658780.4243877197,5104803.669952325,3597253.675876625,-238.53792365451423,-4938.67001709649,6854.881566460304,0.9945489252765892,-2.107712596285513e-06,2.118495071208246e-05,0.10427096804929357
0.075,-3.737372369448857e-06,0.0006233117121208677,-0.007396211922468766,-45.37072686700702,51.82306465646715,5.1289065423698625,-1658781.6163493523,5104778.976591443,3597287.950748217,-238.246729320813,-4938.674335576572,6855.067070315082,0.9945508481057045,-2.229467654474087e-06,2.2716018071846232e-05,0.1042526259200984
0.08,-8.868635906354457e-06,0.000627695132441167,-0.0073823490941309034,-45.36802027625843,51.81203660452864,5.134756162314636,-1658782.8068548418,5104754.2832088135,3597322.2265473013,-237.95546644277024,-4938.67871602577,6855.252563473359,0.9945527755853468,-2.4016349093250255e-06,2.4264790746409537e-05,0.10423423612678838
0.085,6.937021206742944e-06,0.0006139519566831813,-0.007404981809036376,-45.37016379992751,51.7952379908622,5.148782499249383,-1658783.9959041306,5104729.589804371,3597356.503273809,-237.66424910946708,-4938.683061103931,6855.4380394505715,0.9945546991104061,-2.5877018595565526e-06,2.5823125219644163e-05,0.10421588076622344
0.09,4.753421707356293e-06,0.0006172724487611962,-0.0073815775938044954,-45.37240275169238,51.80459855224056,5.138605685235483,-1658785.183497445,5104704.89637843,3597390.7809276413,-237.37307665557637,-4938.687315393451,6855.623493523568,0.9945566281909746,-2.730890650721871e-06,2.7351406688693338e-05,0.10419746909518665
0.095,-1.6709034799234717e-05,0.0006111188059318255,-0.00739210601726847,-45.38514655973887,51.79726486434696,5.1500127450759985,-1658786.369634811,5104680.202931057,3597425.059508785,-237.08186976507707,-4938.6916338000565,6855.808964044312,0.9945585508325253,-2.8803720911637514e-06,2.8887375537779167e-05,0.1041791155804761
0.1,-1.6872370748687356e-05,0.0006150775883836885,-0.007413247777167994,-45.379709896743606,51.79475433329091,5.141550115773839,-1658787.5543160846,5104655.509462293,3597459.339017282,-236.79063965093877,-4938.69587145983,6855.99443461619,0.9945604758749462,-3.081615762394196e-06,3.040245405655233e-05,0.10416073585375159
0.105,7.897935474766112e-06,0.0006021297956174633,-0.007392732142055163,-45.38443365730902,51.78420413271155,5.137433679863294,-1658788.737541267,5104630.815972227,3597493.6194530805,-236.4994333424956,-4938.700155247588,6856.179884851279,0.9945624060794446,-3.284298032397785e-06,3.1927332990379446e-05,0.10414230352419225
0.11,9.190208754466052e-06,0.0006165499532551285,-0.007385116697767374,-45.39243867995205,51.79034937747825,5.132831686547217,-1658789.9193104147,5104606.122460767,3597527.9008160066,-236.20822569236992,-4938.7044287486215,6856.36528560025,0.9945643306008474,-3.4220185929462024e-06,3.342646770370251e-05,0.10412392216704783
0.115,1.003423853399173e-05,0.0006198910265290017,-0.007377808267138873,-45.39392814657715,51.77563758527538,5.127825470816095,-1658791.0996234058,5104581.428927882,3597562.1831059717,-235.91697083065978,-4938.70872516057,6856.550700378118,0.9945662527970012,-3.560279102079176e-06,3.4961793298166855e-05,0.10410555970902363
0.12,6.923698577670301e-06,0.0006071558597201927,-0.007374983462386541,-45.40122889460965,51.77767330325379,5.142827960749372,-1658792.278480172,5104556.735373539,3597596.466322845,-235.62573555508501,-4938.713011910047,6856.73604906813,0.9945681727496863,-3.697309923123664e-06,3.6505645912989046e-05,0.10408721538699146
0.125,1.4598908656867837e-05,0.0006317654400815714,-0.007402571809561342,-45.40647426440656,51.76508744703496,5.1318139804096985,-1658793.455880733,5104532.041797918,3597630.750466594,-235.33448885301272,-4938.717236331748,6856.921450539875,0.9945700916278764,-3.838760675073743e-06,3.801702414386003e-05,0.10406887805337127
0.13,1.1133890064592886e-05,0.0006142195919318186,-0.0074020379477659284,-45.40986411387048,51.76755601212716,5.126255439987711,-1658794.6318250385,5104507.348201148,3597665.0355371567,-235.04323332924335,-4938.721471876428,6857.106774506192,0.9945720173397739,-3.967532940337255e-06,3.9591588854642884e-05,0.10405047208666353
0.135,2.056040945473691e-06,0.0006136651833777378,-0.007377351003227946,-45.41083870939231,51.745753760207926,5.133741535829502,-1658795.8063130137,5104482.65458313,3597699.3215343403,-234.75195676082956,-4938.725735213779,6857.292098917364,0.9945739425714837,-4.100356543262534e-06,4.112162569104234e-05,0.10403206741199672
0.14,5.1412401600871444e-06,0.0006232936291256654,-0.007393600121275749,-45.40878707725887,51.75053010577572,5.136442761493912,-1658796.979344733,5104457.960943981,3597733.6084579974,-234.4607310576762,-4938.729924537746,6857.477363875069,0.9945758610407829,-4.255604896658448e-06,4.2647923297091966e-05,0.1040137240849971
0.145,1.4492147146396474e-05,0.0006017239630083868,-0.007403397519341773,-45.41791674390356,51.7454221906594,5.139487990928526,-1658798.1509203482,5104433.267283856,3597767.896308073,-234.1695149812888,-4938.734125582514,6857.66266634924,0.9945777833929795,-4.405687545657634e-06,4.4198963522574334e-05,0.10399534031940688
0.15,-1.0497892005716512e-05,0.0006204414363837205,-0.00738517632355014,-45.42372320515839,51.74334013080225,5.134998023673891,-1658799.3210398282,5104408.573602813,3597802.1850846326,-233.87827704978872,-4938.738291385567,6857.847957657014,0.9945797079522819,-4.526912902948703e-06,4.569880297502138e-05,0.1039769321565129
0.155,-2.105504084458212e-05,0.0006283433575391626,-0.007396954861660354,-45.42316927397888,51.74065083288572,5.137873940452377,-1658800.4897030634,5104383.879900921,3597836.4747876064,-233.5870169407197,-4938.742465428184,6858.033231854607,0.9945816274305103,-4.71513810521233e-06,4.7238686696952364e-05,0.10395856926656698
0.16,1.5110823853445776e-06,0.0006199769127982688,-0.007367905865631639,-45.42655200289524,51.72598470165009,5.129285184472819,-1658801.6569100397,5104359.186178181,3597870.7654169677,-233.29577364088064,-4938.746630394663,6858.218512502427,0.9945835496268813,-4.931668243588237e-06,4.87954742625792e-05,0.10394017705523326
0.165,3.595764056448053e-06,0.000575195535988045,-0.007382866440969069,-45.43217224952257,51.72293082087527,5.1276447341035185,-1658802.8226608157,5104334.492434615,3597905.0569725377,-233.00453675536644,-4938.7507960460825,6858.403715609938,0.9945854639349505,-5.089911074898517e-06,5.033732316595727e-05,0.10392185703472562
0.17,-1.4442309272583942e-05,0.0006051588776265362,-0.007395892690980592,-45.42787911556035,51.71795426608363,5.130852065695269,-1658803.9869553675,5104309.798670233,3597939.3494540914,-232.71328392467387,-4938.754956830989,6858.588905758694,0.994587381795149,-5.231337892343719e-06,5.1768366205645475e-05,0.10390349978003516
0.17500000000000002,-6.49139118831931e-06,0.000600267318705116,-0.007376120812760649,-45.428837057050345,51.70556597034891,5.128721504705863,-1658805.1497937504,5104285.104885067,3597973.6428615986,-232.422069219561,-4938.7591097409495,6858.774097186135,0.9945893026933276,-5.4254007343242875e-06,5.3269226413592486e-05,0.1038851101022423
0.18,-7.0878014487015825e-06,0.0005919821564748038,-0.007377096125969379,-45.433982306717574,51.70933473211079,5.132689754709797,-1658806.311176113,5104260.411079172,3598007.9371949425,-232.1308758699963,-4938.763248082206,6858.959240432364,0.9945912181158844,-5.598420795835873e-06,5.475998909599272e-05,0.10386676955004691
0.185,-5.535448178587435e-06,0.0006109202711867945,-0.007357329286869228,-45.43664853699924,51.69881129008463,5.122577576288622,-1658807.4711024612,5104235.717252612,3598042.2324540797,-231.83966340689236,-4938.76737603196,6859.144414472483,0.9945931334523641,-5.770772567379207e-06,5.6229996003993704e-05,0.10384842653739956
0.19,-3.984939193094774e-06,0.0006146608189956246,-0.007387077294361286,-45.43882755927103,51.69558727406896,5.120440076454541,-1658808.6295727473,5104211.023405368,3598076.5286389263,-231.54845099821873,-4938.7715215936005,6859.329524089619,0.9945950433146762,-5.9441783920126404e-06,5.774749549870879e-05,0.10383013263870401
0.195,1.4559399898949794e-05,0.0006147141092437281,-0.007378033565185384,-45.44098633447086,51.678373616081466,5.1280043264710145,-1658809.786586969,5104186.329537387,3598110.8257492906,-231.25723769311003,-4938.775670957128,6859.514621594232,0.9945969605581368,-6.1147041418464804e-06,5.9274697831262226e-05,0.10381176473616384
0.2,-7.210417040907455e-06,0.0006252886550362205,-0.007388954789499372,-45.43837375101069,51.67732685659303,5.126254315711312,-1658810.9421452172,5104161.635648824,3598145.123785038,-230.96606160178553,-4938.7797540108595,6859.699677428208,0.994598875113612,-6.239132021570817e-06,6.0806845588948166e-05,0.1037934192824312
0.20500000000000002,-2.721538894096615e-05,0.0006042999204998021,-0.007388179078096555,-45.440700660765174,51.66736751648023,5.1319898469379535,-1658812.0962476276,5104136.941739804,3598179.4227460697,-230.67490259163407,-4938.783854181655,6859.884735201603,0.9946007921597427,-6.4204360686309095e-06,6.235963782445184e-05,0.10377504664063496
0.21,-1.0608804168561301e-05,0.0005895756138287043,-0.007385117331469289,-45.449655312814095,51.662921974233676,5.130832124119168,-1658813.2488942952,5104112.24781039,3598213.722632346,-230.38376444231363,-4938.787911458712,6860.069775475796,0.994602708665872,-6.646037127532001e-06,6.385505147876516e-05,0.10375667589544951
0.215,1.4246690562778703e-06,0.0006096287647195294,-0.007380174987372655,-45.44949339531836,51.65451521685304,5.128675820395436,-1658814.400085203,5104087.553860731,3598248.0234437743,-230.09259857223432,-4938.791951979914,6860.254795645291,0.9946046240390424,-6.826525947103467e-06,6.531816068387289e-05,0.10373831272529727
0.22,9.491092595392238e-06,0.0006213780100450876,-0.007350209410034677,-45.44926270516121,51.64493813122973,5.127283869042758,-1658815.5498203286,5104062.859890877,3598282.3251802246,-229.80145172524072,-4938.795989419907,6860.439784645669,0.9946065377863229,-6.9822932870721815e-06,6.68342531729561e-05,0.10371996180646216
0.225,-8.040561684190145e-06,0.000614668654237591,-0.007392747256765517,-45.454049383307236,51.64466213553503,5.120218007422179,-1658816.6980997762,5104038.165900858,3598316.6278415364,-229.51032733285365,-4938.800018198928,6860.624739940183,0.9946084434221436,-7.121044902079318e-06,6.838165247568365e-05,0.10370168536056129
0.23,4.671691614952572e-06,0.0006151926635180682,-0.007381443771496472,-45.456561728228465,51.63522059201818,5.116250196705612,-1658817.8449235412,5104013.471890634,3598350.931427584,-229.21917866867872,-4938.804071527868,6860.809679078808,0.9946103597467517,-7.301657186336755e-06,6.990782288765775e-05,0.10368330311105639
0.23500000000000001,1.9561787764536933e-05,0.0005990335257238163,-0.007387510770488909,-45.455905408957946,51.62917817949867,5.122889402310766,-1658818.9902915794,5103988.777860153,3598385.2359382203,-228.92803663968147,-4938.808121023543,6860.994575525991,0.9946122727999733,-7.450793973046032e-06,7.143859156563772e-05,0.10366494893012201
0.24,-6.209891082168794e-07,0.0006174390281233679,-0.007377863104640274,-45.45309938229143,51.62345173859071,5.119977818432316,-1658820.134203978,5103964.083809502,3598419.541373348,-228.63692280504634,-4938.8121391371915,6861.17947542957,0.9946141870874237,-7.55871931934363e-06,7.293303886681832e-05,0.10364657962548061
0.245,-1.5627657112290757e-05,0.0005981414282377018,-0.0073873028145063,-45.45767097063531,51.61169401518507,5.121982902233316,-1658821.27666087,5103939.389738733,3598453.8477329244,-228.345833969367,-4938.81616867255,6861.364355207347,0.9946160985301504,-7.72159726281642e-06,7.446802257034569e-05,0.10362823427788755
0.25,1.3804611143124631e-05,0.0005844448638324086,-0.007393298691769449,-45.455102152141286,51.60677932621698,5.120330677071641,-1658822.417662341,5103914.695647908,3598488.155016807,-228.0547544229326,-4938.820161267766,6861.549197829007,0.9946180120806266,-7.9167922045333e-06,7.59511340210756e-05,0.1036098654257029
0.255,-9.471379620205177e-06,0.0006000041389742764,-0.007407471048902911,-45.45855341076691,51.59657827144076,5.117063460749241,-1658823.5572084743,5103890.0015371,3598522.4632248688,-227.76369892847353,-4938.824161721075,6861.734026911612,0.9946199268456747,-8.035255873714112e-06,7.740781188625328e-05,0.10359148162358782
0.26,-8.19483793288731e-06,0.0006086046668000463,-0.007385305653721021,-45.46311611665062,51.59803586104537,5.12161952487033,-1658824.695299342,5103865.3074063165,3598556.7723569646,-227.47264813506203,-4938.8281519071925,6861.918811371777,0.994621844934957,-8.215628714276189e-06,7.889715036689968e-05,0.10357306254970741
0.265,-1.0217851033244691e-05,0.0006073785644841637,-0.00738184591413164,-45.464925481080044,51.58890814805651,5.114340371554768,-1658825.8319349268,5103840.613255624,3598591.0824130415,-227.18158582068043,-4938.8321253477625,6862.10361943809,0.9946237569408758,-8.395049946897855e-06,8.040820549611861e-05,0.10355469855521432
0.27,1.0993635741984973e-06,0.0006138250601621535,-0.007393436379086455,-45.45897328571953,51.57736987527746,5.116507021108769,-1658826.9671152125,5103815.919085035,3598625.3933930336,-226.8905284447355,-4938.83611016398,6862.288377413308,0.9946256677101188,-8.579183401744121e-06,8.191568816285709e-05,0.10353634312847791
0.275,-2.135418553301731e-05,0.0006001146027967432,-0.00736502486549303,-45.46190739788815,51.56599598536196,5.1225895784597775,-1658828.1008403518,5103791.22489456,3598659.7052967483,-226.59952724005015,-4938.840079604677,6862.473108547395,0.9946275811367776,-8.736846863381696e-06,8.344212953557669e-05,0.10351795884329235
0.28,9.937823979091851e-06,0.0005935367779192219,-0.007373619809700943,-45.470160845249715,51.55932029314207,5.120178754456113,-1658829.2331105378,5103766.53068436,3598694.018124062,-226.30854717017667,-4938.844000293266,6862.657816896942,0.9946294868722548,-8.946788496920382e-06,8.492866863873136e-05,0.10349964517480865
0.28500000000000003,1.1388858354485642e-05,0.0006036936455421362,-0.007363501901473292,-45.467005548757285,51.55556123891199,5.107922549125693,-1658830.363925768,5103741.836454596,3598728.331874837,-226.01754493289585,-4938.8479054872005,6862.84249317866,0.9946313944939513,-9.077220057535712e-06,8.640694805387451e-05,0.10348131009250545
0.29,1.8928673233619368e-05,0.0005965974205330118,-0.007351624358224983,-45.466497527432516,51.54015418035366,5.113095285674006,-1658831.4932860145,5103717.142205172,3598762.646548899,-225.7265536590436,-4938.851864142226,6863.027131451012,0.9946332991561958,-9.206668933469653e-06,8.791085890497079e-05,0.10346300013328327
0.295,5.046268015489844e-06,0.0006322509898632835,-0.0073720804776274355,-45.473209934709274,51.529338294323935,5.127428864102252,-1658832.6211914115,5103692.447936073,3598796.962146055,-225.43560508491268,-4938.855775472898,6863.211730935159,0.9946352004091968,-9.31553132666099e-06,8.939907487494713e-05,0.10344471967182901
0.3,-1.1146070765269382e-05,0.0005919785559060919,-0.007377208650229531,-45.46784816344977,51.52078043975771,5.11245483115933,-1658833.7476420999,5103667.753647637,3598831.2786662066,-225.1446702495529,-4938.859598964766,6863.396329699573,0.994637106604836,-9.468138544518505e-06,9.09723559219256e-05,0.10342638831142169
0.305,8.179230300136887e-06,0.0005977999791664723,-0.007371448420663402,-45.47647868842513,51.52678473695995,5.120975353449314,-1658834.8726381792,5103643.059339939,3598865.5961091937,-224.85376152881665,-4938.8634801813105,6863.580865287093,0.994639013794804,-9.650597596941849e-06,9.244130888562494e-05,0.10340804416857534
0.31,-1.6166658904983988e-05,0.0006257597314651702,-0.007357249209604624,-45.47326110234675,51.51539061205213,5.115441344679937,-1658835.9961796326,5103618.365012911,3598899.9144749832,-224.56281983499628,-4938.867331008265,6863.765450506229,0.9946409191544997,-9.786506023859114e-06,9.392973347236597e-05,0.10338971430912
0.315,2.2923419774166528e-05,0.000611487460895859,-0.00738692553318894,-45.47034118873307,51.48697233571531,5.107368112384561,-1658837.1182664619,5103593.670666605,3598934.2337635737,-224.2719119154964,-4938.8711914750165,6863.949985587725,0.9946428204974302,-9.990176534163978e-06,9.548139037243687e-05,0.10337141972720126
0.32,1.4754232228094535e-05,0.0005897006432534176,-0.0073660074258202575,-45.472635481397575,51.49999876549077,5.110606596101007,-1658838.2388989022,5103568.976301046,3598968.5539745227,-223.98106421351108,-4938.875032070409,6864.134394103,0.9946447291737168,-1.0092964097439954e-05,9.700765896235926e-05,0.10335305130759247
0.325,1.0568003303754818e-05,0.0006005083420663912,-0.0073819250080888205,-45.47230088210306,51.4774822059022,5.111828157602317,-1658839.3580770437,5103544.281916236,3599002.8751076865,-223.69019234969457,-4938.878892148538,6864.318871411613,0.9946466321097037,-1.0210430847348042e-05,9.847764191240798e-05,0.10333473487034632
0.33,2.48004835154329e-05,0.0006054807563967263,-0.007356397556359766,-45.47201171159091,51.47255576804569,5.111470508073086,-1658840.4758009503,5103519.587512245,3599037.19716304,-223.3993702794154,-4938.8827038758445,6864.503269884752,0.9946485388147911,-1.0341103085559438e-05,9.99734175683789e-05,0.10331637881758415
0.335,-1.5272665126553866e-05,0.0006153001725701154,-0.007378259206113568,-45.487075565058184,51.47075365692984,5.109881574615043,-1658841.5920707854,5103494.893089201,3599071.520140356,-223.10856371771206,-4938.886513582302,6864.687656446724,0.9946504385856431,-1.0437662480602013e-05,0.00010148523448255484,0.10329808620294159
0.34,7.763615940492082e-06,0.000601292300767767,-0.007376646510188899,-45.47367577186071,51.45348654606025,5.100972257425552,-1658842.7068864363,5103470.198647164,3599105.844039565,-222.81769665876627,-4938.8903015960095,6864.872027242545,0.994652343658885,-1.0636410173055554e-05,0.0001030111193092083,0.10327973920117792
0.34500000000000003,-2.634647887015945e-06,0.0006111297735150292,-0.007345513806228051,-45.470990683454076,51.451511838422135,5.1105239719505535,-1658843.820247966,5103445.50418611,3599140.1688604415,-222.52691531262116,-4938.894120110177,6865.0563233013245,0.9946542479793,-1.0774257895805482e-05,0.00010450811968992538,0.1032613961686623
0.35000000000000003,5.151121538926878e-06,0.0006100186293607423,-0.00735347747831306,-45.48942319967442,51.43632486288324,5.106749886727903,-1658844.9321556732,5103420.809706036,3599174.4946028725,-222.23616751277268,-4938.897909214254,6865.240649161041,0.9946561439207131,-1.0940493751973796e-05,0.00010602689873563061,0.10324313051908127
0.355,2.110344194722009e-06,0.0006213900871960147,-0.007353249872375488,-45.48043002168489,51.42061640930495,5.108784220372205,-1658846.0426095063,5103396.115207144,3599208.8212667354,-221.94536570408215,-4938.901647731305,6865.424895958498,0.9946580415800118,-1.1087084511842932e-05,0.00010754492407960153,0.10322484502958357
0.36,7.333237819327498e-06,0.0005935790862782375,-0.007386363223388944,-45.48006930908446,51.41575061738086,5.101325875547264,-1658847.1516095232,5103371.420689604,3599243.148851728,-221.65464104804417,-4938.905368045859,6865.609101165287,0.9946599388389309,-1.1244171083265353e-05,0.00010909044146380594,0.10320656007143397
0.365,-2.440285205963609e-05,0.0005954325561040994,-0.007364694021062303,-45.468555972949595,51.40728393441168,5.104894785520601,-1658848.2591559333,5103346.726153398,3599277.4773576683,-221.36392297966785,-4938.9091145705725,6865.793274885758,0.994661844309422,-1.1381103479750274e-05,0.00011056814925093044,0.10318819273605943
0.37,-3.266790434361971e-06,0.0005996746519739157,-0.0073636144434553906,-45.488194317732436,51.398590922392955,5.106568778831616,-1658849.365248946,5103322.031598465,3599311.8067844626,-221.07328213201308,-4938.912858622384,6865.977442850165,0.994663743848108,-1.1597424717254387e-05,0.00011204227958165834,0.10316987925791524
0.375,6.439950810044574e-06,0.0006050865388631378,-0.0073561926342566655,-45.474349573389546,51.38199658436541,5.096866746313695,-1658850.4698885938,5103297.337024961,3599346.1371320006,-220.78257701166788,-4938.916543024112,6866.161572311643,0.9946656427684135,-1.1762281604241074e-05,0.00011353241006517353,0.10315156842307051
0.38,-4.485078872042992e-06,0.0006131014850199344,-0.007372521433383936,-45.47777441699965,51.38147892263064,5.109234460275189,-1658851.5730749296,5103272.642432945,3599380.468400001,-220.49195731765437,-4938.920263467835,6866.345627884958,0.9946675394345391,-1.1904394587189712e-05,0.00011503850143707432,0.10313327600570205
0.385,-1.0159613514590565e-05,0.0006165583508579258,-0.007378053115019279,-45.47734515391833,51.370804381181124,5.10006344212434,-1658852.6748081848,5103247.947822451,3599414.8005883754,-220.2013447515168,-4938.923934122278,6866.529721823406,0.9946694399686802,-1.2075745712289087e-05,0.00011656170596542953,0.10311494295172353
0.39,6.813400437275843e-06,0.0005825324477085342,-0.007360270007561376,-45.46953001595655,51.35387047357855,5.0940218665071155,-1658853.7750884155,5103223.253193554,3599449.1336970697,-219.91074746216543,-4938.927624631271,6866.713755986996,0.9946713415871342,-1.2262100297001297e-05,0.00011809204356061205,0.10309659610850812
0.395,-1.6171940710196638e-05,0.0005902900027974686,-0.007366982681400274,-45.48000197624997,51.35106416760057,5.097911817957515,-1658854.8739158188,5103198.558546183,3599483.46772576,-219.62021392360361,-4938.931323563365,6866.897720009712,0.9946732382928771,-1.2397473314038145e-05,0.00011954214483367332,0.10307829344697
0.4,-3.3515820820396045e-06,0.0006055084561573581,-0.007372167428470434,-45.481787967439416,51.33883195993799,5.093043532402658,-1658855.9712904769,5103173.863880408,3599517.8026742684,-219.32964925361333,-4938.934986407532,6867.081683411022,0.9946751363861892,-1.259200468109337e-05,0.00012100561321466821,0.10305997406461387
0.405,3.208516868576452e-06,0.0005906602136937021,-0.007357915122546836,-45.47903336043965,51.3243063871857,5.088863198575071,-1658857.0672123455,5103149.169196332,3599552.1385424538,-219.0390982677927,-4938.938644046226,6867.265590836706,0.9946770354712933,-1.2758578415911636e-05,0.00012251022809859748,0.1030416417498397
0.41000000000000003,-1.83773485756275e-05,0.0005996042253223875,-0.007349556607847456,-45.47000228484428,51.31699113703614,5.0996103568656626,-1658858.161681557,5103124.474493978,3599586.4753300278,-218.74858636152783,-4938.942297848445,6867.449438784211,0.9946789305502579,-1.2905009863599598e-05,0.00012397961028924479,0.10302334483946937
0.41500000000000004,-1.2402131444405467e-05,0.0006168479725450651,-0.007339549771834616,-45.46550268500312,51.30065134911935,5.094299127731604,-1658859.2546983922,5103099.7797734365,3599620.8130368837,-218.4581476291662,-4938.9459183624385,6867.633303550945,0.9946808231345599,-1.3107419835056336e-05,0.00012546567413703583,0.1030050686855487
0.42,-1.5356441589396275e-05,0.000598324944296118,-0.007349351229431822,-45.47066674719903,51.297006130151516,5.100321405002339,-1658860.3462631553,5103075.085034793,3599655.151662892,-218.1677576096949,-4938.949538933994,6867.81709975391,0.9946827127991128,-1.3299408561958519e-05,0.00012699615702597535,0.10298681737824296
0.425,-8.781141105448805e-07,0.0006125538619620383,-0.007337579836803822,-45.476202003831276,51.28728702309347,5.101273984818545,-1658861.4363759605,5103050.390278136,3599689.491207897,-217.8773644627879,-4938.953123987188,6868.000902389616,0.9946846046553655,-1.3493977829971973e-05,0.0001284798175684573,0.10296854166418207
0.43,1.67227797312799e-05,0.0005907547654151758,-0.007349211711206671,-45.472625533570756,51.26992815933704,5.093871200969603,-1658862.5250367993,5103025.695503629,3599723.831671834,-217.58697107708028,-4938.956678884667,6868.184672322194,0.9946864931397993,-1.365620271608267e-05,0.00013000258870847096,0.10295029518210773
0.435,8.896182879855505e-06,0.0006315449388012559,-0.007362761340758979,-45.467960094626534,51.263374389726145,5.0873394945214,-1658863.6122457806,5103001.000711338,3599758.1730544223,-217.2966214354924,-4938.960237805644,6868.368362926109,0.9946883842881856,-1.376905239101095e-05,0.00013147568128305578,0.1029320197349554
0.44,6.625619201981997e-06,0.0005971447729375673,-0.007349586743964087,-45.460850748687655,51.24636199517389,5.08987799278129,-1658864.6980030888,5102976.305901182,3599792.515355383,-217.00630187251156,-4938.963824270681,6868.552021407868,0.9946902785709016,-1.3911865614632727e-05,0.00013304819310704644,0.10291371055977235
0.445,4.340525283678045e-06,0.0006146228392007727,-0.007362943502581991,-45.47289143303085,51.24164964015071,5.089085543635233,-1658865.7823089785,5102951.611073162,3599826.8585745185,-216.71605400873406,-4938.967383629497,6868.735632802397,0.994692169136603,-1.4051470098637526e-05,0.00013453457738719072,0.10289543411310006
0.45,2.7923117182496884e-05,0.0005879928995109298,-0.007340017912065488,-45.464804554563884,51.219683791965046,5.088698696970135,-1658866.8651635272,5102926.916227409,3599861.2027116544,-216.42576542760608,-4938.970917744424,6868.919221424916,0.9946940627935149,-1.4201257515823718e-05,0.00013606383657709914,0.10287712441688729
0.455,1.4824791989347828e-05,0.0006025048195590902,-0.007354935665991363,-45.461820109155354,51.22172385592057,5.088411523064076,-1658867.946566836,5102902.221364047,3599895.5477665467,-216.13555816566713,-4938.97442698338,6869.10273549316,0.9946959502257888,-1.4285544440414248e-05,0.00013753294020052114,0.10285887168848755
0.46,-1.587408146668207e-06,0.0005914935743387967,-0.007368927732429315,-45.45229053790138,51.19909044303274,5.085454225713079,-1658869.026519146,5102877.5264830915,3599929.8937390563,-215.84536581854886,-4938.977955317522,6869.286268331878,0.9946978411508378,-1.4406140316229748e-05,0.0001390347624173356,0.10284058183256599
0.465,-2.0637726664466635e-05,0.0005906389668257968,-0.007343430489159768,-45.463918189270466,51.19873713494337,5.080386166533345,-1658870.1050207084,5102852.831584527,3599964.2406290215,-215.55525915374483,-4938.981470333395,6869.469717925092,0.994699735337345,-1.4564722993490932e-05,0.00014050498232767708,0.10282225715298474
0.47000000000000003,1.3567421168954286e-05,0.0005963138206414446,-0.007329641413527982,-45.46361504267774,51.181009324260955,5.0749742933995865,-1658871.1820716069,5102828.136668382,3599998.5884361938,-215.2651002090398,-4938.9849878084615,6869.653150844166,0.9947016226306584,-1.4770450394887907e-05,0.0001419681809320451,0.10280399585037904
0.47500000000000003,-3.163140935071329e-05,0.0005859122459992487,-0.007340694238859007,-45.45922452122723,51.17134041786284,5.083374168371614,-1658872.2576717911,5102803.441734677,3600032.937160335,-214.97497353036738,-4938.9884939061585,6869.836505696592,0.9947035060424763,-1.4892571601255578e-05,0.0001434542830279541,0.10278576879065311
0.48,6.6282045040187785e-06,0.0005901733394958066,-0.00735115010251332,-45.45863698330409,51.15763700558314,5.082838876497243,-1658873.3318214763,5102778.746783541,3600067.2868012423,-214.6849004772133,-4938.991960965691,6870.0198572714735,0.9947053919598499,-1.5124422519865173e-05,0.00014490290396552684,0.10276751422702451
0.485,-1.7045270804672578e-05,0.0005983073024222204,-0.007374138282873387,-45.4609900129458,51.14897733190617,5.074622648312539,-1658874.4045208772,5102754.05181512,3600101.637358788,-214.3948598829779,-4938.995407222564,6870.203160969729,0.9947072802258008,-1.5262229365537828e-05,0.00014637195040378533,0.1027492336132326
0.49,5.409207206884007e-06,0.0005851100187678505,-0.007342068117512135,-45.45240889836112,51.137319861528766,5.073592916560182,-1658875.4757700758,5102729.356829431,3600135.988832724,-214.1048195824383,-4938.998868403595,6870.38641332726,0.9947091740537094,-1.5461004459800655e-05,0.00014785514211673885,0.1027308958064785
0.495,-8.271820484087316e-06,0.0006113573332332575,-0.0073067822250137355,-45.44117759956063,51.11977145905389,5.076828253218659,-1658876.545569233,5102704.66182643,3600170.341222836,-213.8148432103024,-4939.002331859167,6870.56963154589,0.9947110593120974,-1.560053908433508e-05,0.00014931128329272422,0.10271263770816604
0.5,-6.076836762007062e-06,0.0005890473186031074,-0.00734061993978036,-45.453819412469414,51.104913773422695,5.076471474719045,-1658877.6139187377,5102679.966806169,3600204.6945289294,-213.52495878685525,-4939.005772705543,6870.752805855329,0.9947129351636366,-1.5780822033270197e-05,0.00015082918399334435,0.10269446732743633
0.505,3.219000647814916e-05,0.0005923931006765637,-0.007334232175566658,-45.44464429149852,51.110879732340926,5.072643222231853,-1658878.6808187594,5102655.271768832,3600239.0487507363,-213.23504988635364,-4939.009162101711,6870.935916896077,0.9947148193753412,-1.594993150173901e-05,0.00015229216668946724,0.10267621276507004
0.51,2.5388287970254482e-05,0.0005918257851031024,-0.007344572662507655,-45.455392650502176,51.09209673330891,5.077276223837848,-1658879.746269314,5102630.57671441,3600273.4038881734,-212.94517192772358,-4939.01260629039,6871.119057941288,0.9947167016107386,-1.60247358732279e-05,0.00015377329257259585,0.10265797403823688
0.515,1.3675025159264028e-05,0.0005799904728850423,-0.0073540840061204924,-45.445214788261346,51.074785639807594,5.067780423604606,-1658880.8102704727,5102605.881642959,3600307.759941157,-212.6552915220557,-4939.015974276744,6871.302135389829,0.994718586162841,-1.6116313073338687e-05,0.00015525126156706181,0.10263970956461647
0.52,-5.449246201801742e-07,0.0006070659022520967,-0.007322999283241043,-45.44422897950289,51.059692453946695,5.067125970394942,-1658881.8728224053,5102581.186554603,3600342.116909329,-212.36548158831943,-4939.019368176031,6871.485133410581,0.9947204728217359,-1.6233985527563917e-05,0.00015669679249825282,0.10262142140837395
0.525,1.6245746160140007e-05,0.0005983911435762483,-0.007336027719857987,-45.439002664680466,51.039403998019516,5.075756626036809,-1658882.93392538,5102556.491449335,3600376.474792357,-212.07570826351062,-4939.022739335701,6871.668077946377,0.994722351157546,-1.6393954284673232e-05,0.00015820600766902702,0.10260321052336126
0.53,2.434582231579196e-05,0.0005930471481081311,-0.0073472138945848715,-45.445276317522044,51.03245546363828,5.058868314019964,-1658883.9935796803,5102531.7963273665,3600410.8335899957,-211.78601186065873,-4939.026047950005,6871.850977435085,0.994724232503125,-1.6509947905206653e-05,0.0001596979567533072,0.10258496719818713
0.535,-6.315851447128389e-06,0.0006081729097387495,-0.007300590567583254,-45.431904743950454,51.02081393704731,5.06504189812636,-1658885.05178542,5102507.101188743,3600445.1933019515,-211.49628393036446,-4939.0294014744595,6872.033804950115,0.9947261163827021,-1.6604432097062184e-05,0.0001611786931823702,0.10256669601731622
0.54,-2.393604970629984e-05,0.0005945422060088367,-0.0073227487691106515,-45.433889522842584,51.011768066878304,5.0703914799293015,-1658886.108542756,5102482.406033392,3600479.5539280204,-211.20665055736282,-4939.032738676948,6872.216622548135,0.9947279879641827,-1.6779025914237363e-05,0.0001626891843012982,0.10254854075715789
0.545,-2.568263184692513e-05,0.0005969617148895559,-0.007324246730191127,-45.427860324769064,50.99353357968952,5.060056925307955,-1658887.1638519752,5102457.710861453,3600513.91546814,-210.9170371557243,-4939.036037133224,6872.399425418692,0.9947298648965781,-1.699395247697595e-05,0.00016416126001573053,0.10253033036678338
0.55,2.0195086345548062e-06,0.0006034717701554028,-0.007341309634388142,-45.42541933124502,50.985780031715166,5.063562667785384,-1658888.2177132587,5102433.015672974,3600548.277922052,-210.6274761899134,-4939.039354171911,6872.582139191436,0.9947317418762186,-1.7213843274904626e-05,0.00016563890481137346,0.10251211621725934
0.555,4.644141360551231e-06,0.0005999272606885057,-0.007312564401742239,-45.42218575333974,50.9712519373697,5.065140847684219,-1658889.270126825,5102408.320467959,3600582.6412895047,-210.33795030512917,-4939.042651840862,6872.7648420684345,0.9947336228907093,-1.7366519035429714e-05,0.00016713983772582877,0.10249385958877134
0.56,5.961975773992167e-06,0.0005861415188737834,-0.00732972727259476,-45.41990625978337,50.94969329973205,5.061897186989978,-1658890.321092883,5102383.62524652,3600617.0055703647,-210.04847290196625,-4939.04592384736,6872.947501876256,0.9947354962052603,-1.7511747526720187e-05,0.00016863262974682486,0.10247567440934278
0.5650000000000001,7.759565660354931e-06,0.0005847845985814239,-0.007327265629578108,-45.42280664673848,50.94971249942907,5.0574294272106535,-1658891.370611681,5102358.930008783,3600651.370764309,-209.75904626084792,-4939.0491711152945,6873.13007576004,0.9947373735872039,-1.7650174248006895e-05,0.00017009147565769556,0.10245744651411587
0.5700000000000001,-2.2741579634015012e-07,0.0005689596140548451,-0.007309796945524996,-45.41499528808524,50.925784281069234,5.057487762656825,-1658892.4186833126,5102334.234754762,3600685.736871107,-209.46960644547062,-4939.052437221759,6873.312643500397,0.9947392500032369,-1.778378202549184e-05,0.0001715474076125835,0.10243922470529397
0.5750000000000001,-1.0481340591194254e-05,0.0005853333513889148,-0.007311237394363426,-45.420965394717555,50.912992221223774,5.052798389693648,-1658893.4653079554,5102309.53948449,3600720.1038905396,-209.1802507006162,-4939.055671544685,6873.495129607206,0.9947411216169412,-1.7933191967215415e-05,0.0001729619405027697,0.10242104630805994
0.58,-3.4297856416603975e-05,0.0005906310141561226,-0.007309646830707751,-45.404389879475055,50.90497609943887,5.056213724803687,-1658894.5104858098,5102284.844198086,3600754.4718222497,-208.89089097112668,-4939.0588899485765,6873.6775543313315,0.9947429932575982,-1.811229506566414e-05,0.00017441456680057798,0.10240286429791717
0.585,3.1086292548679316e-06,0.0005804613531803742,-0.007318443236208156,-45.40805758070473,50.89503830575585,5.054117837660166,-1658895.554217112,5102260.148895567,3600788.840666082,-208.60162996740038,-4939.062117764917,6873.859978742133,0.9947448641532576,-1.835198198468908e-05,0.0001758742704454727,0.10238468621899861
0.59,-2.8089845946752656e-06,0.0006058149492136732,-0.007303540951947318,-45.40116608314033,50.87466493014572,5.055678736471099,-1658896.5965021206,5102235.453576946,3600823.2104219357,-208.31237342788515,-4939.0653307195735,6874.042362539063,0.9947467369719238,-1.849604494755837e-05,0.00017731825771078965,0.10236648621419996
0.595,2.1249865798913735e-06,0.0005737990575231029,-0.007317816634756451,-45.4018522129437,50.8568651463167,5.041879829621801,-1658897.6373410348,5102210.758242339,3600857.5810895483,-208.02319228589232,-4939.068512198038,6874.224682526542,0.9947486056308411,-1.8661306012102698e-05,0.00017882378220953103,0.10234832323642633
0.6,2.5423689282625596e-05,0.0005877940578506275,-0.007302762514114073,-45.405118800987545,50.84985354127327,5.0385524853186645,-1658898.6767340861,5102186.062891776,3600891.952668504,-207.73402822246007,-4939.071713021321,6874.406899803101,0.9947504776225838,-1.8806111368011024e-05,0.00018025094903229442,0.10233012472174073
0.605,-1.187058988109425e-05,0.000580854997209875,-0.007302853000896876,-45.39853936511392,50.83450924758128,5.045781521752523,-1658899.7146813155,5102161.367525214,3600926.3251584666,-207.44486353270398,-4939.074911337619,6874.589085254531,0.9947523454235416,-1.8896549220019178e-05,0.0001817188807332789,0.10231196359923787
0.61,4.280633716715009e-06,0.0005959900507130793,-0.0073211623446751625,-45.401229124644985,50.82210344771916,5.052032084799706,-1658900.7511829017,5102136.67214277,3600960.698559287,-207.15577097535157,-4939.078066650385,6874.771242886095,0.9947542129153398,-1.907795866366439e-05,0.00018316001662458257,0.10229380223465459
0.615,-2.788724196543384e-06,0.0005950750768283949,-0.007323985356279614,-45.386482170441184,50.80780535125035,5.050711153787037,-1658901.7862390853,5102111.976744677,3600995.072870829,-206.86670242475262,-4939.081170533269,6874.953374047053,0.9947560847487488,-1.9223080795873927e-05,0.00018464292115178893,0.10227559529430769
0.62,9.773636773363784e-06,0.0005976971395839229,-0.007317997045429117,-45.38761309223254,50.79680779893925,5.040288618490602,-1658902.8198501656,5102087.28133104,3601029.448092926,-206.5777297311151,-4939.084284323436,6875.135464614992,0.99475795696848,-1.9385550992972082e-05,0.00018612174248446996,0.10225738130224624
0.625,-2.3373663989182605e-06,0.0005734544556467715,-0.007291150475579992,-45.38342057435716,50.77467634112849,5.03853935493538,-1658903.8520164003,5102062.585901782,3601063.8242253102,-206.28876410590829,-4939.087418824997,6875.317489153729,0.9947598273212912,-1.9517447438992395e-05,0.00018761029632442008,0.10223918216203048
0.63,-5.3438576180979864e-06,0.0006009422871774522,-0.0073156271092982275,-45.37447374035193,50.75628601317172,5.0434251169172635,-1658904.8827379623,5102037.890456921,3601098.2012676112,-205.99986070646693,-4939.0905252807925,6875.49943121376,0.9947616904890868,-1.967325375484362e-05,0.00018903546674348218,0.10222104975908688
0.635,1.1002342270292709e-05,0.0006195450991184307,-0.007283779336369123,-45.366839214354144,50.74622983588023,5.040002199139492,-1658905.9120152204,5102013.194996619,3601132.579219511,-205.71104251810542,-4939.093595875212,6875.681328478366,0.9947635595650407,-1.9843573074677823e-05,0.0001905282271829576,0.1022028564508702
0.64,-9.080605918534454e-06,0.0005906511089760746,-0.0072970738703688875,-45.375560535938654,50.734818027764874,5.029898397514467,-1658906.9398485215,5101988.4995209295,3601166.958080808,-205.4222779195154,-4939.096679741982,6875.8631904741,0.9947654201620018,-1.9977978859438965e-05,0.00019207142920783094,0.10218474230217921
0.645,4.195335173760916e-06,0.0005989295746640744,-0.00728203914547627,-45.36462616057699,50.72202353946449,5.032173076707561,-1658907.966237935,5101963.804029814,3601201.3378512324,-205.13348751575325,-4939.099766431189,6876.044979234335,0.9947672838353511,-2.015495426491088e-05,0.0001935376432216454,0.10216659506803927
0.65,-1.4002993212108904e-05,0.0005942173827127778,-0.007300658418603036,-45.36402793893689,50.70077779948847,5.032101765677639,-1658908.991183598,5101939.108523287,3601235.718530531,-204.84477773179628,-4939.1028444359135,6876.226740286674,0.9947691433326745,-2.0301020666161197e-05,0.0001950278366896265,0.10214848518303317
0.655,8.472793301454688e-06,0.0005966529893473625,-0.0072922950950093796,-45.358156043342,50.68585745132739,5.0353415762213025,-1658910.014685829,5101914.41300147,3601270.100118442,-204.55611456483905,-4939.105882373877,6876.408424066048,0.9947710072534489,-2.049115061947928e-05,0.00019650166296032598,0.10213032896827474
0.66,1.3421586937128058e-05,0.000596465050309373,-0.007288742672714049,-45.35862828303778,50.65693004812801,5.037674715337776,-1658911.0367449012,5101889.717464533,3601304.482614677,-204.26751442360393,-4939.108892552792,6876.590069945582,0.9947728687055992,-2.0626002678712807e-05,0.00019798728541947947,0.1021121935071204
0.665,-6.337271299241846e-06,0.0006103917199166793,-0.007278563024527119,-45.35030282891207,50.66619656326149,5.041847776742141,-1658912.0573611201,5101865.021912717,3601338.866018885,-203.97897310396107,-4939.111833400751,6876.7716132062005,0.9947747289185587,-2.074849768144094e-05,0.00019947370393439594,0.10209406684401093
0.67,3.0863280951321083e-06,0.0005813559287556733,-0.0072976489085806555,-45.343108834687996,50.64162435096375,5.040004996650102,-1658913.0765347108,5101840.326346126,3601373.2503309716,-203.69046316794106,-4939.114803186643,6876.953221407932,0.9947765861932392,-2.0923681208769487e-05,0.00020098971450272196,0.10207596547209032
0.675,-1.6027754034483694e-05,0.0005981036767175424,-0.0073023650808880436,-45.34443113891512,50.62724563034969,5.031734344034471,-1658914.0942659515,5101815.630764754,3601407.6355508734,-203.40203313157312,-4939.117745807829,6877.134739415998,0.9947784480210737,-2.106802873814771e-05,0.0002024359185000078,0.10205781659736325
0.68,-7.928675868071193e-06,0.0006011141579151094,-0.007267013562223358,-45.345311623936695,50.61320578302356,5.02712532434891,-1658915.1105550798,5101790.935168658,3601442.0216781804,-203.11361812683162,-4939.1206924760645,6877.316183475794,0.9947803107092438,-2.1264187436132674e-05,0.00020391889607411823,0.10203965596834746
0.685,-5.467004903856218e-07,0.0005926629957526254,-0.00726339492158701,-45.33197834569136,50.60098541345999,5.025100402276186,-1658916.1254021856,5101766.239557851,3601476.4087125533,-202.82522421480593,-4939.123630451747,6877.497565577111,0.9947821640459936,-2.1440954067332175e-05,0.0002054114284458689,0.10202158321845677
0.6900000000000001,2.260555214160787e-06,0.0006080384765488024,-0.007275925245690423,-45.32038734851149,50.57975190083397,5.026296033273925,-1658917.1388075338,5101741.543932318,3601510.796653748,-202.53691507225065,-4939.126582866025,6877.678912239773,0.9947840161341414,-2.1597204687179112e-05,0.0002068848260819419,0.10200351943074254
0.6950000000000001,2.1145462311434156e-05,0.0005937549536354747,-0.007281518488952295,-45.31030955892403,50.563141615999264,5.016248479910749,-1658918.1507715797,5101716.848292078,3601545.1855015145,-202.24870334244773,-4939.129512795896,6877.860194411825,0.9947858710790128,-2.1750401130802657e-05,0.0002083971770539084,0.10198542444440925
0.7000000000000001,1.320961715306642e-05,0.0006085596070673752,-0.007285248246103257,-45.307042003797676,50.56020826778854,5.019260571159387,-1658919.161294737,5101692.152637117,3601579.575255496,-201.96055946156457,-4939.132472028272,6878.041398169054,0.9947877271267822,-2.1852992606456705e-05,0.00020987881999846877,0.10196731550481523
0.705,-2.288007628344293e-06,0.0005803151250710385,-0.007286322036713592,-45.31347422257648,50.526020876237546,5.02403442758197,-1658920.1703772477,5101667.45696737,3601613.965915516,-201.67244490478612,-4939.135426419754,6878.222609829939,0.9947895837850642,-2.197909621214727e-05,0.00021139525839598,0.10194919725874704
0.71,5.133043561155127e-06,0.0005910558156582944,-0.007264620536189498,-45.304450977073685,50.50974775061778,5.007125669637498,-1658921.1780192975,5101642.76128311,3601648.3574812887,-201.38437506469967,-4939.138277516196,6878.403699323899,0.9947914403988649,-2.2136543811580727e-05,0.00021283750344665373,0.10193107631788322
0.715,-1.615345473916152e-05,0.000586016405449084,-0.007273776240918997,-45.30706814968213,50.50061647340667,5.008588528862549,-1658922.1842211327,5101618.0655844575,3601682.7499522665,-201.09635891692173,-4939.141183592683,6878.584691681276,0.9947932911459795,-2.2278260886283604e-05,0.00021430835258443633,0.10191300930970343
0.72,-1.878255373888703e-05,0.0005995250851867204,-0.007266206449647573,-45.30552474993502,50.48871158286583,5.017705565371569,-1658923.1889829172,5101593.369871337,3601717.143328139,-200.80835493036184,-4939.144064646882,6878.765657477606,0.994795143896629,-2.2471638069544414e-05,0.00021576124478462795,0.10189491950924655
0.725,1.5159842779061125e-05,0.0005927832491342521,-0.007297717689531622,-45.28573584869939,50.46123042421895,5.006684951772348,-1658924.192304796,5101568.674143943,3601751.537608809,-200.5203965815176,-4939.146892737177,6878.946610343619,0.9947969943807387,-2.2674990864042702e-05,0.00021724706353126673,0.101876848501545
0.73,-1.3325295766931748e-06,0.0005875309504585077,-0.007268650103103809,-45.277022835204534,50.44815080471331,5.01552570474908,-1658925.1941872074,5101543.978402339,3601785.9327939497,-200.23256797996382,-4939.149749005811,6879.127446046383,0.9947988525641913,-2.2792229187671545e-05,0.00021872475838449507,0.10185869907358357
0.735,6.450504076503861e-06,0.0005935965393879968,-0.007254220478777276,-45.28460538285125,50.4410918418638,5.009210679471385,-1658926.1946306748,5101519.282646553,3601820.328883238,-199.94481893807733,-4939.152565412056,6879.308269336124,0.9948007030156367,-2.2949130611145987e-05,0.0002201851926403012,0.10184062191195256
0.74,7.517692349713795e-06,0.0005935064851150161,-0.00726765839928074,-45.281145051017894,50.41669599719531,5.002271986103428,-1658927.1936353373,5101494.586876685,3601854.725876533,-199.65704606496107,-4939.155382007877,6879.489048554647,0.9948025494603768,-2.3088211974037962e-05,0.0002216626943537288,0.10182258059840647
0.745,3.987167234121911e-06,0.0005805355495633239,-0.0072820895763871145,-45.27101980977915,50.40126575566286,5.010371591741816,-1658928.191201276,5101469.891092769,3601889.1237734566,-199.36932940643274,-4939.1581841814295,6879.669720837147,0.9948043989959515,-2.322462374805172e-05,0.0002231402429120936,0.10180450583030463
0.75,-1.2407986945564899e-05,0.0005825380463756419,-0.007266950267846738,-45.26282113913388,50.387757238195775,4.996056745567357,-1658929.187328854,5101445.195294942,3601923.522573684,-199.0817019035525,-4939.160946896205,6879.850370230147,0.9948062518802558,-2.3366522770352485e-05,0.0002245846331404971,0.10178639514053567
0.755,-1.387440760669795e-06,0.000572584362198271,-0.00725919256896717,-45.26228484956739,50.35766603997143,5.002584010872909,-1658930.1820184158,5101420.4994831765,3601957.92227696,-198.7941226902889,-4939.16375896891,6880.030940242455,0.9948081005789117,-2.354969785674947e-05,0.00022602983241029658,0.1017683220776717
0.76,-1.0091843903883893e-05,0.0005920307960137023,-0.007259449562650101,-45.25511938156454,50.3496068367921,5.008902655010441,-1658931.1752702578,5101395.803657568,3601992.3228828493,-198.50661414712434,-4939.1664845222285,6880.211415390623,0.9948099469800565,-2.3702927805780485e-05,0.0002274530809039391,0.10175026826895514
0.765,-6.0070191078152694e-06,0.0005832460101951208,-0.0072520147361884845,-45.23810740503343,50.33522200150659,4.997313675331309,-1658932.1670847076,5101371.107818386,3602026.724391113,-198.2191658478863,-4939.169188455069,6880.391890070646,0.9948117931052401,-2.3882752659806126e-05,0.0002289224788830489,0.10173221379115785
0.77,-1.7699340393540975e-05,0.000602709030176222,-0.007246257620345772,-45.241536552753594,50.32074493645709,4.990631677715178,-1658933.1574621482,5101346.411965547,3602061.12680158,-197.93181038749535,-4939.171947060873,6880.572296781897,0.9948136370153158,-2.405017993194992e-05,0.00023037106810459599,0.1017141777684868
0.775,5.052045708435568e-06,0.0006004252675348763,-0.0072652813228053685,-45.23916417126279,50.29320040538314,4.9977674471398,-1658934.1464028307,5101321.716098932,3602095.5301139015,-197.64446261282433,-4939.174698811635,6880.752631732443,0.9948154791206066,-2.4251632244804893e-05,0.0002318650896032427,0.1016961560358924
0.78,1.8216417080107986e-05,0.0005816036399402751,-0.0072425732200164395,-45.22981422026547,50.28408676539709,4.987827446347719,-1658935.1339069621,5101297.020218757,3602129.934327694,-197.35718987637023,-4939.1773712014565,6880.932885372508,0.9948173257356097,-2.4395931374589268e-05,0.0002333592143868941,0.101678086943872
0.785,2.3985386195796925e-05,0.0005779659962328531,-0.0072557917081141204,-45.223658612408244,50.26115838570878,4.9930701800610215,-1658936.1199748572,5101272.324325109,3602164.339442634,-197.06996822713572,-4939.180088085303,6881.113090644975,0.9948191662607635,-2.4502692518910117e-05,0.00023480987659542477,0.10166007428769341
0.79,1.0487622326016506e-05,0.0005840652129200912,-0.007251415824283998,-45.21979918842507,50.2516782793154,4.992825509992084,-1658937.1046068473,5101247.62841801,3602198.745458439,-196.7828277854782,-4939.182751382635,6881.293231217506,0.9948210098190542,-2.4594189204275516e-05,0.0002362529571069902,0.10164202871973456
0.795,1.889337509087982e-05,0.0005729321105529489,-0.007243912919164626,-45.213173375286544,50.22204138395736,4.990236925211696,-1658938.087803234,5101222.932497609,3602233.152374878,-196.49572691189593,-4939.185408833621,6881.473344429736,0.994822851931738,-2.472080278656018e-05,0.00023770777703142237,0.10162399400878698
0.8,5.106642834207368e-06,0.0006097330019835737,-0.0072693014938419315,-45.20862647158639,50.2200581285287,4.988433569446216,-1658939.06956433,5101198.236564014,3602267.5601915997,-196.20871142586168,-4939.188029162399,6881.653344203221,0.9948246918166825,-2.4823677838766964e-05,0.00023913704424481468,0.1016059779201095
0.805,4.353092158029019e-07,0.0005866710374617727,-0.007259943109352308,-45.20489535910692,50.197146474588884,4.980531996410094,-1658940.049890416,5101173.54061727,3602301.9689083183,-195.9217230186277,-4939.190668372667,6881.833343242291,0.9948265377982578,-2.497020449169459e-05,0.00024065433385603687,0.10158789866077556
0.81,2.959903263798583e-05,0.0005914204271417794,-0.0072375676841173395,-45.19920030425082,50.18129225160234,4.984828057497267,-1658941.0287816937,5101148.844657348,3602336.3785247733,-195.63478806195164,-4939.193300867123,6882.0132388927395,0.9948283810863082,-2.5122486381330784e-05,0.00024211308095833218,0.10156984264687952
0.8150000000000001,-1.5301790977991473e-06,0.0006311986880804721,-0.007237480272288216,-45.187873562763535,50.15447685159451,4.969265192402825,-1658942.0062384594,5101124.148684349,3602370.7890406097,-195.34791823060195,-4939.195898788397,6882.193095525757,0.9948302183627792,-2.5203428456718342e-05,0.00024359104684202004,0.10155184223072661
0.8200000000000001,-3.362348399903267e-06,0.0005935094184119882,-0.007250508790943688,-45.18453699368097,50.14192065210868,4.977901313006923,-1658942.9822610877,5101099.452698285,3602405.2004553927,-195.06113308377476,-4939.198526780468,6882.372817810867,0.9948320552628502,-2.5371890061026263e-05,0.0002451600411189341,0.10153384201493976
0.8250000000000001,5.434714733451249e-06,0.0006000946285788655,-0.007227370977180839,-45.180640101103,50.12973041547738,4.969168680056042,-1658943.9568499257,5101074.7566992035,3602439.612768749,-194.77440209277128,-4939.201105746932,6882.552524627703,0.9948338951643831,-2.5535349553136353e-05,0.00024663483318649183,0.1015158093661581
0.8300000000000001,1.4162357834632848e-05,0.0005741816353620334,-0.0072137970009745495,-45.17130383506116,50.09951303647996,4.974208186831085,-1658944.930005193,5101050.060687173,3602474.0259804837,-194.48770481152013,-4939.203706176649,6882.732169347664,0.9948357288622449,-2.5678586986233512e-05,0.0002481282372279664,0.10149783422376138
0.835,-4.024295138723243e-06,0.000610673472768786,-0.007248160890764395,-45.167446786951494,50.07906945039269,4.97795873441501,-1658945.9017272445,5101025.364662299,3602508.440090212,-194.20111584459164,-4939.206243587629,6882.911721823764,0.9948375588061004,-2.5793534281010007e-05,0.0002495594087229034,0.10147989280401302
0.84,1.6163544790138438e-05,0.0006019355322954053,-0.00721928357400122,-45.161604957951276,50.063205275666846,4.97954897114913,-1658946.8720165126,5101000.668624855,3602542.8550975504,-193.9145912988487,-4939.208734214013,6883.091213521212,0.9948393971168317,-2.5962992889871696e-05,0.00025107672259693496,0.10146186589365151
0.845,1.5926606503385583e-05,0.0005811722037487379,-0.007240119820178451,-45.157621259100345,50.04887419227384,4.970457059774083,-1658947.8408733134,5100975.972575016,3602577.2710022307,-193.62812905415106,-4939.21120116148,6883.270658697667,0.9948412277818496,-2.6080007798509015e-05,0.00025257742688381994,0.10144391075850079
0.85,-7.278456042637007e-06,0.0005914138145925106,-0.007229560967718373,-45.137952816598414,50.0350240806189,4.962222779878494,-1658948.8082978968,5100951.276512798,3602611.6878039576,-193.34170428469503,-4939.213686186278,6883.450032124689,0.9948430634170665,-2.6192359362300476e-05,0.00025402642910109246,0.10142590376959988
0.855,-1.5186367529324042e-05,0.0005775268332323322,-0.007230299327259297,-45.13612187547073,50.01374014740822,4.9648167293897085,-1658949.7742906262,5100926.580438035,3602646.1055024164,-193.05538753064815,-4939.216219231361,6883.629351258883,0.9948448960393124,-2.6365014612254816e-05,0.0002554950199287823,0.1014079230223691
0.86,9.150631004590797e-06,0.0005728648302719386,-0.007215756942340403,-45.13323288302124,49.99353009614128,4.952097609785081,-1658950.7388519105,5100901.884350726,3602680.524097298,-192.76912614019048,-4939.218703976205,6883.808601279921,0.9948467285299554,-2.6553817563773572e-05,0.0002569270673302729,0.10138994041137511
0.865,1.2059640487072366e-05,0.0005739855780081319,-0.0072324150218419396,-45.12392036997507,49.97045154165747,4.9613790963076285,-1658951.7019819838,5100877.188250952,3602714.9435881623,-192.48290325253066,-4939.22120542369,6883.9877445944985,0.9948485570126256,-2.66809005068072e-05,0.00025835368948393903,0.1013719939203981
0.87,1.0904867649814364e-06,0.0005831581905531774,-0.007238546971380059,-45.12441327099856,49.95125986094577,4.963552443984703,-1658952.6636811947,5100852.492138831,3602749.363974615,-192.19678106362167,-4939.223643426403,6884.166836433063,0.9948503893898862,-2.680104317164141e-05,0.00025978383510757346,0.10135400596352843
0.875,-1.1322806831949641e-05,0.0006064915044999713,-0.007238395524547474,-45.11785814324016,49.93523877087067,4.959727060442914,-1658953.623949896,5100827.796014635,3602783.785256367,-191.91069948828297,-4939.226034802692,6884.345864533542,0.9948522229866005,-2.6950795679796117e-05,0.000261234014258531,0.10133600272886202
0.88,5.437499889914018e-07,0.0005678998047457801,-0.007224464098988845,-45.11225042524319,49.92509544720913,4.965199379173397,-1658954.5827883366,5100803.099878485,3602818.207433106,-191.62467669797303,-4939.228424931888,6884.524830879211,0.994854056200885,-2.7137332823893792e-05,0.0002627390815478044,0.10131799984398958
0.885,2.618377428958774e-05,0.0005864517436847669,-0.0072154069345741,-45.09992949337588,49.89221548608498,4.95441414620111,-1658955.5401968027,5100778.403730451,3602852.6305046445,-191.33870976922617,-4939.23078869391,6884.703784548523,0.9948558855852631,-2.728457199319032e-05,0.00026415117266271487,0.10130003156994591
0.89,-3.8114002642544967e-06,0.0005664939325324804,-0.007197454932925941,-45.087175851152104,49.873283487455815,4.957488082335157,-1658956.4961756994,5100753.7075706,3602887.054470589,-191.0528489433721,-4939.233151800469,6884.882593328001,0.9948577123392165,-2.737273312970817e-05,0.00026561589891109505,0.10128208577092362
0.895,-1.6094413941715546e-05,0.0005854026614207266,-0.007225073339100763,-45.07935597233507,49.85952164175746,4.951716301165674,-1658957.4507255438,5100729.01139899,3602921.479330455,-190.76708877725696,-4939.23549244447,6885.061352976275,0.9948595342338499,-2.753043124142346e-05,0.0002670233934107324,0.10126418460931859
0.9,-3.7627526247641235e-06,0.0005729804735730709,-0.007187772051085846,-45.08014087973312,49.84119206351467,4.951387295101039,-1658958.4038467319,5100704.315215641,3602955.905083976,-190.481386435967,-4939.237847249537,6885.24005557912,0.9948613627814947,-2.7723484406737435e-05,0.00026847480517178384,0.10124621473040245
0.905,1.4031836982716394e-06,0.0005673788963584892,-0.007212066331699248,-45.05923902727154,49.82069843135353,4.947302986995719,-1658959.3555394944,5100679.619020605,3602990.3317308417,-190.19571858964602,-4939.240166660989,6885.418690670895,0.9948631815717967,-2.7882697544644657e-05,0.0002698984448786847,0.10122833758502099
0.91,-4.504932875728357e-06,0.0005644047526005919,-0.007193578565656088,-45.05554127938692,49.81000835250831,4.9418357977154415,-1658960.3058042447,5100654.922813927,3603024.759270711,-189.91018151443149,-4939.242504955534,6885.597256993518,0.9948650061900617,-2.802766097044842e-05,0.0002713094581446577,0.10121039997982807
0.915,-2.5189907765181467e-05,0.0005685216035138101,-0.007207817040110567,-45.0599427267461,49.779594125654626,4.945117005477666,-1658961.254641395,5100630.2265955275,3603059.1877032937,-189.62467863490843,-4939.244854799022,6885.775776168532,0.9948668258074637,-2.8186553757722546e-05,0.0002727115805315635,0.10119250832790898
0.92,1.5559712580824037e-05,0.0005980895472553478,-0.0071853630568365825,-45.04675044613083,49.761592291054605,4.939961308504435,-1658962.2020511427,5100605.530365591,3603093.6170281987,-189.33922042663406,-4939.247119849687,6885.954185798808,0.9948686486982716,-2.8397944717745e-05,0.0002741187082109783,0.1011745812433418
0.925,-1.044629370416984e-05,0.0005824123773826207,-0.00719578400162104,-45.03794777625078,49.74735409600289,4.936152696189376,-1658963.148033825,5100580.834124296,3603128.047244982,-189.05385254673772,-4939.249397940843,6886.132527349475,0.9948704655681263,-2.851544779237218e-05,0.00027560968501021463,0.10115670994269467
0.93,-1.9302869599988737e-05,0.0005904442200783609,-0.007227298549679364,-45.03170734607161,49.73016466732638,4.93597315325514,-1658964.0925898321,5100556.137871593,3603162.4783533406,-188.76855026318492,-4939.251683298945,6886.31081622661,0.9948722847586376,-2.8693674929637743e-05,0.00027705509238858263,0.101138812709449
0.935,8.773329129625777e-06,0.000592689859635083,-0.007194465162984543,-45.01851656148534,49.704955205924094,4.938515173719088,-1658965.0357194878,5100531.441607511,3603196.910353002,-188.48331205637706,-4939.253949644485,6886.489048444343,0.9948741115857962,-2.889598261800076e-05,0.000278518234700935,0.1011208370662937
0.9400000000000001,-5.678300520577039e-06,0.0005658922863210144,-0.007209457703818249,-45.012845818055716,49.684612846325514,4.933391346062673,-1658965.9774232358,5100506.745332181,3603231.3432436357,-188.19818705999728,-4939.25618213909,6886.667204866753,0.9948759297875771,-2.9029004429372345e-05,0.00027999406233749,0.10110294303305913
0.9450000000000001,-5.459544171134596e-07,0.0005828859383426884,-0.007187781451106551,-45.00271598352033,49.66432718789487,4.927015443988798,-1658966.9177015107,5100482.049045709,3603265.7770248414,-187.91312292547508,-4939.258406668632,6886.84527753588,0.9948777514719382,-2.919120738823788e-05,0.00028139958538725375,0.10108501168960282
0.9500000000000001,1.927515729885678e-05,0.0005977866374159393,-0.0071716238188542,-45.00378982212556,49.6394591354495,4.9292050182273455,-1658967.8565546628,5100457.352748099,3603300.211696203,-187.62813792538134,-4939.260637490399,6887.023266878842,0.9948795673425888,-2.934492445477058e-05,0.00028284867345113263,0.10106713422140207
0.9550000000000001,-4.307577982635437e-06,0.0006029385413671309,-0.007169253776262495,-44.99652908386402,49.618478395038025,4.922590547374115,-1658968.7939830103,5100432.656439487,3603334.647257292,-187.34320106851246,-4939.262807314736,6887.201168905399,0.9948813787989478,-2.9453095966136914e-05,0.00028433983176864066,0.10104929689255601
0.96,1.2719356041667623e-05,0.0005593622123073085,-0.007184435505508561,-44.988577264243915,49.60261107097121,4.922675953712632,-1658969.7299868416,5100407.960120027,3603369.083707669,-187.0583314120402,-4939.2649767941975,6887.378981715169,0.9948831893292377,-2.9621222334386094e-05,0.0002858378464548677,0.10103146544217302
0.965,2.4185246122690367e-05,0.0005918864362437518,-0.007172090692209356,-44.97538944661072,49.58409818349858,4.916861314916195,-1658970.6645664985,5100383.2637897525,3603403.5210469863,-186.77353142414233,-4939.267132685515,6887.55674536506,0.9948850034041327,-2.9736003564798482e-05,0.0002872317771713807,0.10101359618999395
0.97,-1.9127417844396074e-06,0.0005819634982161844,-0.007152439626143452,-44.964552062852775,49.56776202799374,4.915604888499702,-1658971.5977223816,5100358.5674486635,3603437.959274942,-186.48882177281945,-4939.2693029380225,6887.734436962471,0.9948868140165763,-2.983047128784339e-05,0.00028870949889608563,0.10099575759859697
0.975,-1.5854909940041828e-05,0.0005828362094056753,-0.007211471953688669,-44.961359988069496,49.543512121009165,4.915149038374774,-1658972.5294549207,5100333.871096732,3603472.398391225,-186.2041938514044,-4939.271469706265,6887.9120761476715,0.994888619351432,-2.998733074112784e-05,0.0002901559520274568,0.10097796787064486
0.98,-2.67509934896143e-05,0.0005785379952724412,-0.007171216477232246,-44.950905688196706,49.518120993097654,4.911676624919273,-1658973.4597644769,5100309.174734068,3603506.838395482,-185.9196286345614,-4939.273596014468,6888.089626620945,0.9948904392641751,-3.0179130578712435e-05,0.0002916010516356701,0.10096003129349597
0.985,1.1660961281585435e-05,0.000577312502520552,-0.007180069887659419,-44.939553312067595,49.490507406947714,4.909518989649167,-1658974.3886514406,5100284.478360812,3603541.279287252,-185.63515690033117,-4939.275706090892,6888.267081403649,0.9948922486950718,-3.0396917213910128e-05,0.0002930327133834983,0.10094219481624046
0.99,9.720632416304402e-06,0.0005676263304308129,-0.007162147135073567,-44.924652633456226,49.478886782065416,4.908591519265199,-1658975.3161163037,5100259.781977069,3603575.721066045,-185.3507883264844,-4939.277791463621,6888.444435834744,0.9948940600417445,-3.051886167514616e-05,0.000294471019748077,0.10092433625776932
0.995,-1.5287133035881656e-05,0.0005765687228342754,-0.007155292348567653,-44.92026378334263,49.44683878490604,4.904327769429634,-1658976.2421595536,5100235.085582862,3603610.1637315378,-185.06651160672422,-4939.279891221658,6888.621761271925,0.9948958665514922,-3.0643175060115605e-05,0.0002958847460311649,0.10090652224692137
1.0,1.5096339317268784e-06,0.0005743945164691519,-0.00716167136733207,-44.90442131060611,49.42928846076102,4.917352448430321,-1658977.166781613,5100210.389178258,3603644.607283333,-184.7823120961613,-4939.2819500779315,6888.798956670237,0.9948976710027806,-3.0831939535125105e-05,0.00029731440600050206,0.10088872527085738
1.0050000000000001,-4.6885364642248045e-06,0.0005849015403814443,-0.007160052795654914,-44.890683504259506,49.41241086525953,4.901087695666052,-1658978.0899829862,5100185.6927634915,3603679.0517210714,-184.49823721702305,-4939.283956650483,6888.976138740045,0.9948994767452073,-3.097838269851251e-05,0.0002987428941112096,0.1008709123837779
1.01,-1.8634059648231475e-05,0.000569854299121433,-0.0071611906515975385,-44.900103397629664,49.39001910199355,4.904945545004579,-1658979.011764176,5100160.996338542,3603713.4970444846,-184.21423872985014,-4939.286023587333,6889.153226568242,0.9949012817501978,-3.1142890667010516e-05,0.0003001959527946175,0.10085310349376453
1.0150000000000001,-1.7845066621059302e-05,0.0005799408072999978,-0.007157703099217647,-44.88354716187627,49.37287054553683,4.903452118385429,-1658979.9321253942,5100136.299903453,3603747.943253138,-183.93024854307214,-4939.288011455039,6889.33023480609,0.9949030867313798,-3.133829162418737e-05,0.0003016080688703356,0.1008352917527225
1.02,3.059569923689996e-05,0.0005907793087708914,-0.007162770909343467,-44.872325978858534,49.35877425591133,4.902469640849112,-1658980.8510669325,5100111.603458408,3603782.390346703,-183.6463668174067,-4939.290006643217,6889.507191325941,0.9949048905050626,-3.15342702025417e-05,0.00030304547176320104,0.10081748865222483
1.025,6.198650390904338e-06,0.0005585119484269285,-0.007140416896479131,-44.85975141610203,49.335859540018255,4.887722696353381,-1658981.7685892617,5100086.907003384,3603816.8383249454,-183.36256478708054,-4939.292003191521,6889.684105521137,0.9949066952307289,-3.16124994993168e-05,0.0003045220415449851,0.10079967287667914
1.03,-1.436196222985762e-06,0.0005795052597084668,-0.007161121860607346,-44.865278361922094,49.30123740731955,4.894611725695544,-1658982.6846927905,5100062.210538281,3603851.2871874697,-183.07884674996953,-4939.294037822765,6889.860904248123,0.9949084940257509,-3.174326238737893e-05,0.0003059122074269998,0.10078191269021985
1.035,9.534297044525354e-06,0.0005786261367630125,-0.0071266751725278495,-44.84334069241224,49.28429288592278,4.891924931258683,-1658983.5993778582,5100037.514063284,3603885.7369336938,-182.79518033229536,-4939.295961324117,6890.03758538615,0.9949102977008544,-3.1898320399505835e-05,0.000307352663990687,0.10076410097665944
1.04,4.806885957511237e-06,0.0005703608385324603,-0.007143621947033302,-44.84245181838843,49.26282004358003,4.884792773699206,-1658984.5126449205,5100012.817578609,3603920.187563199,-182.51164460276684,-4939.297908300933,6890.21421675608,0.9949120923806001,-3.202584383132227e-05,0.000308793700161224,0.10074637490079914
1.045,4.338135702891474e-06,0.000581777871092325,-0.007145829505174321,-44.830709075707496,49.24025630392872,4.888239987036713,-1658985.4244944009,5099988.121084232,3603954.6390756164,-182.2281475829603,-4939.299842692992,6890.390750041872,0.9949138910160393,-3.216305698469727e-05,0.00031021298608929944,0.10072860664560858
1.05,1.4216865310709078e-05,0.0005616945221895328,-0.007144049259582288,-44.8204134893936,49.22296010792258,4.886134566232497,-1658986.3349266537,5099963.424580269,3603989.09147054,-181.9447534949489,-4939.3017425696,6890.567219406156,0.9949156898790116,-3.230431280941362e-05,0.00031166055110959335,0.10071083286669198
1.055,5.258084251226911e-06,0.00057713173079855,-0.007141788670826281,-44.81425330634357,49.20242712227763,4.879728044319824,-1658987.2439421355,5099938.728066815,3604023.5447476623,-181.66143924229476,-4939.303638928669,6890.743629517883,0.9949174879907293,-3.241593945202478e-05,0.000313060650313978,0.10069306347734702
1.06,-2.143036756241493e-06,0.000569930984307347,-0.007146802767758504,-44.79822390437056,49.18411405257419,4.878671358363506,-1658988.1515412,5099914.031543885,3604057.998906615,-181.3781865706131,-4939.305532817677,6890.919951763127,0.9949192852012956,-3.255373348440649e-05,0.00031449689125534534,0.10067529968419728
1.065,-1.1212792111298803e-05,0.0005886553657492297,-0.007147916395911744,-44.80027573569691,49.13928370975736,4.886467002664116,-1658989.057724273,5099889.335011482,3604092.4539470403,-181.09504261307106,-4939.30742846076,6891.096218294842,0.9949210833594794,-3.270812790039937e-05,0.0003159133585086048,0.10065752339357532
1.07,-3.862699659182294e-06,0.0005799373127722997,-0.007126014148822413,-44.786314429473286,49.12052452562748,4.876677377750016,-1658989.962491843,5099864.638469929,3604126.909868414,-180.81198533624178,-4939.309193060635,6891.272331187479,0.9949228814626252,-3.288979428713049e-05,0.0003173741164261654,0.10063974430630593
1.075,-2.0041935067747143e-05,0.0005753857436301058,-0.007139154498484426,-44.767388019352104,49.10773525498381,4.875730662724844,-1658990.865844349,5099839.941919475,3604161.3666701433,-180.52901707961541,-4939.310988572704,6891.448360414258,0.9949246737438416,-3.305096789084785e-05,0.0003188150408455054,0.10062201965928487
1.08,1.2269883198139546e-06,0.0005863508297113227,-0.0071258133386641045,-44.758191480837894,49.07361742192614,4.870743088098738,-1658991.7677822933,5099815.245359994,3604195.8243519417,-180.24616070718565,-4939.312803998396,6891.62435903028,0.9949264690144465,-3.325124978841148e-05,0.000320240572937589,0.10060426230918616
1.085,2.180101189614536e-05,0.0005724191623383596,-0.007108425147463295,-44.74416702514158,49.066751246434414,4.868401282020664,-1658992.6683062094,5099790.5487915175,3604230.282913392,-179.96340574917147,-4939.314586388304,6891.800221053038,0.9949282606041581,-3.340137629326094e-05,0.00032169872903301146,0.10058653809263095
1.09,-4.750926751232469e-06,0.0005532662988235995,-0.0071352304389839935,-44.74386155477275,49.0365910441939,4.86307951558269,-1658993.5674165445,5099765.852214057,3604264.742354116,-179.6807282433093,-4939.316397726781,6891.976068555222,0.9949300475171796,-3.349681126386853e-05,0.0003231274076284382,0.10056885707864423
1.095,-1.2324024008465147e-05,0.0005703663019012096,-0.00712384797855645,-44.730278506604996,49.01554051169548,4.8599567196967755,-1658994.4651136268,5099741.155627642,3604299.2026737556,-179.3981047047615,-4939.318168137592,6892.15178722203,0.9949318408655249,-3.365349572756518e-05,0.00032450176873224007,0.10055110938215556
1.1,1.0144586351240117e-05,0.0005889970935364675,-0.0071071515964716,-44.71140732459883,48.99207769819874,4.855949904966064,-1658995.3613978415,5099716.459032379,3604333.6638718015,-179.11558112534928,-4939.319937136759,6892.327431188264,0.9949336310200196,-3.3833306296118974e-05,0.00032591676032548306,0.10053338997016024
1.105,-9.665779922141751e-06,0.0005726126346634712,-0.007122983684987766,-44.70774807070681,48.970284190367195,4.856244499476186,-1658996.2562697553,5099691.762428253,3604368.125947861,-178.83318441809172,-4939.3217134779425,6892.502992548285,0.994935416647947,-3.396189885119877e-05,0.0003273837413439847,0.10051571203573781
1.11,-1.4533338343324852e-05,0.0005805522088081781,-0.007096730517315412,-44.69463977938439,48.94714422347748,4.8471331298501665,-1658997.1497298386,5099667.065815337,3604402.588901536,-178.55084886980032,-4939.323452822427,6892.678477525986,0.9949372059491389,-3.413566220206156e-05,0.0003288049890852761,0.10049799470714119
1.115,1.0954629850177307e-06,0.0005485056391236268,-0.007123060898815122,-44.69552687138755,48.927675194826,4.849204612008685,-1658998.0417784788,5099642.369193683,3604437.052732385,-178.26860720034603,-4939.325208546778,6892.853862156899,0.9949389883310044,-3.432350602727485e-05,0.0003302447644570634,0.1004803426505413
1.12,1.7756707701418637e-05,0.0005703548816965458,-0.007105429758395826,-44.67730504736006,48.902227149062895,4.845497364915593,-1658998.9324160076,5099617.672563371,3604471.517439993,-177.98640436849837,-4939.326916311695,6893.029181017628,0.9949407770385558,-3.446444719502544e-05,0.0003316087524787089,0.10046262505903374
1.125,1.1297256777047115e-05,0.0005702291535892174,-0.007113020195931494,-44.66981516875955,48.86467768733163,4.850393614721369,-1658999.8216428421,5099592.97592452,3604505.9830239695,-177.70432942277182,-4939.328624331316,6893.204409479758,0.9949425609845767,-3.456941893647481e-05,0.0003330312732508339,0.10044495127470658
1.1300000000000001,-1.5212280741674705e-05,0.0005659302581354268,-0.0071125776677552245,-44.66522371248523,48.85334826588574,4.8459010212516835,-1659000.709459583,5099568.279277337,3604540.449483777,-177.422367011595,-4939.330248868395,6893.3795135783275,0.9949443465198888,-3.469043237129526e-05,0.00033445185848239253,0.10042725858371182
1.135,1.2817270196245983e-05,0.0005829128872066909,-0.007097573868793754,-44.64132771473906,48.83890199427051,4.847214560883773,-1659001.595866613,5099543.582622011,3604574.916818989,-177.14044495674958,-4939.331881215862,6893.554571156006,0.9949461316287828,-3.487630489555446e-05,0.00033585509504113515,0.10040956698402488
1.1400000000000001,1.025107073989681e-06,0.000582629326417745,-0.007077002777356699,-44.6383958877969,48.80823833905044,4.83635321413213,-1659002.4808643828,5099518.885958482,3604609.385029421,-176.85866289707985,-4939.333530894871,6893.72960172144,0.9949479126435765,-3.499670812385777e-05,0.0003373076108918399,0.10039191264736402
1.145,2.7789686215457366e-05,0.0005685454204785391,-0.007079045051752465,-44.62718056658862,48.790031015841656,4.829164099502106,-1659003.3644533907,5099494.18928674,3604643.8541146456,-176.57694029621433,-4939.335165642219,6893.90448804024,0.9949496881801874,-3.514635429634605e-05,0.0003387564635206697,0.10037430945685342
1.1500000000000001,-8.141180748851806e-06,0.0005853096870371894,-0.007091734810940637,-44.6053401663959,48.75990393116821,4.830950903639598,-1659004.246633983,5099469.492606784,3604678.32407411,-176.2952966248256,-4939.336816546398,6894.079297784894,0.9949514639299604,-3.522589450732181e-05,0.0003401770001091012,0.1003567011333761
1.155,-4.161978841181281e-06,0.0005683715816166736,-0.007088757872792376,-44.601556642056764,48.73297695294477,4.836366326317811,-1659005.1274067557,5099444.795918636,3604712.7949073957,-176.01381248468772,-4939.338442593414,6894.254016421726,0.9949532425318118,-3.53990251870512e-05,0.00034163021979325325,0.10033906124304563
1.16,9.755399726677957e-06,0.0005724604132623872,-0.007089194581456133,-44.59212947382842,48.71826446838943,4.835680095775119,-1659006.0067723014,5099420.099222531,3604747.266614067,-175.7324057777662,-4939.339999888674,6894.4286521813865,0.9949550200870422,-3.555800662941669e-05,0.0003430423062489985,0.10032142872386622
1.165,1.4640071665357837e-05,0.0005618390315652996,-0.00706891060037267,-44.58038920298722,48.68853776192733,4.8224733900062,-1659006.8847309959,5099395.4025186505,3604781.739193803,-175.45107203679913,-4939.341552094965,6894.603242256976,0.9949567974350073,-3.568339601447391e-05,0.0003444680535946641,0.10030379507441055
1.17,-7.995472414951178e-06,0.0005389716045047789,-0.007085914609977414,-44.566443514211294,48.66440759768858,4.824451816090853,-1659007.7612832573,5099370.705806973,3604816.2126461403,-175.16983252769796,-4939.343118778415,6894.777692566622,0.9949585693925255,-3.579395441422307e-05,0.00034586860797928984,0.10028621184429042
1.175,-2.435061949696932e-06,0.0005691529047843195,-0.007092245537220493,-44.554422074051786,48.63202686227981,4.8209939267991775,-1659008.636429605,5099346.009087533,3604850.686970547,-174.88870656952176,-4939.344657445809,6894.952070096378,0.9949603453175916,-3.595509785788225e-05,0.0003472066052946768,0.10026858630849039
1.18,1.9528097093420204e-05,0.0005533062179488925,-0.007040232934827178,-44.546802617889526,48.62105279415188,4.822836206130811,-1659009.5101706048,5099321.312360472,3604885.1621665335,-174.6076933512634,-4939.346166680404,6895.12632452821,0.9949621224895205,-3.610998140652555e-05,0.00034862106875988035,0.10025094498591067
1.185,-1.722572631442379e-06,0.0005713112389938127,-0.007049649053719818,-44.53375917707396,48.59965349418331,4.823691290340848,-1659010.382506692,5099296.615625891,3604919.6382337296,-174.3267415082945,-4939.347665732882,6895.300554027601,0.9949638863289963,-3.6206216720398496e-05,0.00035000162424673613,0.10023343299055909
1.19,9.953898019493751e-06,0.0005417201701712377,-0.007073270764435426,-44.52906953140485,48.56737212511882,4.8163551597228,-1659011.2534382779,5099271.918883863,3604954.11517191,-174.04589278565416,-4939.349145581156,6895.474717903409,0.9949656521997183,-3.6359831147151566e-05,0.00035142163956735576,0.10021589755913636
1.195,-2.8382022309319123e-05,0.0005756340977806484,-0.0070542491302122805,-44.510742890449684,48.54694432100443,4.812731611952697,-1659012.1229658066,5099247.222134508,3604988.59298056,-173.76511871929955,-4939.350596413073,6895.648742161452,0.9949674237036653,-3.647700835856949e-05,0.0003527709728078116,0.10019830333174137
1.2,-8.071369851001914e-06,0.0005785844247645467,-0.007053115687502814,-44.49750671561882,48.521438742591215,4.8092994381869625,-1659012.9910897634,5099222.52537787,3605023.0716591566,-173.48446398509094,-4939.35205878014,6895.822696587026,0.994969190097137,-3.66980215575575e-05,0.0003541950628197116,0.10018075641838597
1.205,-1.4856738535920849e-06,0.0005685179868131442,-0.007038301506795129,-44.48839181373453,48.49479137996929,4.804063247098303,-1659013.857810711,5099197.828613948,3605057.5512072905,-173.20391508490243,-4939.353509826659,6895.996556864644,0.9949709558945121,-3.6869251472810134e-05,0.00035563157837715956,0.10016321227476492
1.21,1.238601281814772e-05,0.0005705191735192535,-0.007052825626587128,-44.475033730374,48.47001421422284,4.798326384066319,-1659014.7231291318,5099173.13184281,3605092.0316244573,-172.92345326133272,-4939.354945572763,6896.170309921232,0.9949727176811057,-3.702156604806682e-05,0.0003570447047666957,0.10014570494413247
1.215,-7.996795676523611e-06,0.0005642450296657654,-0.007046666286485596,-44.46464508931374,48.44339067378948,4.808450310868554,-1659015.587045499,5099148.435064494,3605126.512910146,-172.64309353504302,-4939.356380955701,6896.343965426569,0.9949744827928095,-3.7139889727329936e-05,0.00035846628049051004,0.10012816144190209
1.22,-2.6858318286785284e-05,0.000576897613142185,-0.007054899365826996,-44.459387466188744,48.43056710124433,4.79169599748608,-1659016.4495603484,5099123.738279183,3605160.9950639536,-172.36284627279497,-4939.357743143611,6896.517557809406,0.994976246055375,-3.730733826481666e-05,0.00035986714790871294,0.10011063324818308
1.225,-1.6726480379530597e-05,0.0005632277267527911,-0.007041578089825902,-44.438247811659366,48.393483240775986,4.799874058113693,-1659017.3106740369,5099099.041486927,3605195.4780855076,-172.08262915794694,-4939.359159284247,6896.6910637054025,0.9949780110541693,-3.752487776043368e-05,0.00036129476639907535,0.10009308455964784
1.23,8.580542105471613e-06,0.0005552600737761296,-0.007047843685548727,-44.430971483927934,48.36851621178104,4.794183099476529,-1659018.1703870823,5099074.344687759,3605229.9619743354,-171.8025889905154,-4939.3605078899855,6896.864467375722,0.9949797724218914,-3.771378216949135e-05,0.00036269091825257086,0.10007556896790418
1.235,8.418675523123768e-06,0.0005969644589483509,-0.007056164009237493,-44.41269813110311,48.35047261574849,4.799717418194045,-1659019.0287001147,5099049.647881882,3605264.446729923,-171.5226240011644,-4939.361843069776,6897.037767812856,0.994981535056243,-3.783774889078599e-05,0.00036407358180493086,0.10005803773737595
1.24,1.805714826058897e-05,0.0005863021321504882,-0.007041994262699271,-44.41050199562699,48.325436369887036,4.790243754714183,-1659019.8856136387,5099024.951069376,3605298.932351927,-171.24278553612567,-4939.363158986742,6897.211033599918,0.9949832994225841,-3.7972557956276425e-05,0.00036555994169912515,0.10004048577532135
1.245,2.423755986192329e-06,0.0005846178307152005,-0.007026729140208438,-44.39473271550489,48.3046378477459,4.794892566709367,-1659020.7411280894,5099000.254250315,3605333.4188399636,-170.96299474024224,-4939.364465781186,6897.384181155209,0.9949850599445338,-3.808071210077143e-05,0.00036702219132514084,0.10002296902083573
1.25,-1.7299932242999554e-05,0.000561184636910691,-0.007022076630013487,-44.38666970711169,48.272528282849365,4.777341518286462,-1659021.5952438838,5098975.557424787,3605367.906193612,-170.6833230385388,-4939.365745295602,6897.557278339586,0.9949868163395373,-3.8227318534100706e-05,0.00036847634340744166,0.10000549022112899
1.2550000000000001,5.736239371270425e-06,0.0005720121242965439,-0.007031315764531415,-44.37306162253582,48.239367418319915,4.776362635311934,-1659022.4479615104,5098950.860592816,3605402.394412335,-170.4037276011383,-4939.367043244413,6897.730210746544,0.9949885712821651,-3.8417124074020855e-05,0.00036986727532996164,0.09998802298375088
1.26,-1.1679030223864e-05,0.0005550089708153246,-0.007026193579747489,-44.362164735023065,48.217191162839384,4.776349178920705,-1659023.2992814705,5098926.163754449,3605436.8834954244,-170.12425645000155,-4939.368303278888,6897.903024976752,0.9949903282174589,-3.8552342874085826e-05,0.0003712908976689004,0.09997053271089287
1.2650000000000001,7.189226884296054e-06,0.0005866222840048035,-0.007040930119513379,-44.34392610322164,48.19635385422607,4.770645938559229,-1659024.149204309,5098901.466909838,3605471.373442402,-169.84487897635344,-4939.369541266701,6898.075766147241,0.994992083577488,-3.872662743386581e-05,0.0003726678729185367,0.09995305516608324
1.27,-6.175015834656399e-06,0.0005614920445469856,-0.007021778821721261,-44.34041208056903,48.1680896375256,4.779838295954905,-1659024.9977305525,5098876.77005899,3605505.864252892,-169.56561839672713,-4939.370797751246,6898.248429791814,0.9949938422826221,-3.886189091314039e-05,0.00037412819896619784,0.09993554091267424
1.2750000000000001,-4.3183776474876554e-06,0.000538387477075802,-0.0070106395660398365,-44.32007520892086,48.13433760684834,4.773418266983341,-1659025.8448607014,5098852.073202079,3605540.355926505,-169.28644110190822,-4939.371966797373,6898.421015329482,0.9949955959157205,-3.902410130557031e-05,0.00037552267676727366,0.09991807428167901
1.28,-1.1359946984729576e-05,0.0005832363680088793,-0.007012149609902817,-44.30895340462408,48.108761750486735,4.763192021362595,-1659026.6905953349,5098827.376339333,3605574.8484627195,-169.00741233444612,-4939.373131743266,6898.593470587341,0.994997346480146,-3.91759114515438e-05,0.00037686014696093595,0.09990063532903987
1.285,-1.8949519406842004e-05,0.0005384280052340789,-0.006999835826740544,-44.29915939603373,48.07229016936676,4.764003273439445,-1659027.5349350437,5098802.679470735,3605609.3418609225,-168.72847117541602,-4939.374307529827,6898.765810527589,0.9949990970710932,-3.935643994684698e-05,0.00037830741956571885,0.09988319259152739
1.29,-1.9329894943987973e-05,0.0005634256279806633,-0.006996153922968148,-44.28414596967105,48.06346896488021,4.770425221238657,-1659028.377880335,5098777.982596409,3605643.8361205007,-168.4496453761837,-4939.375422862088,6898.93802068417,0.9950008443216208,-3.954464682245927e-05,0.0003796413373872085,0.099865780465271
1.295,9.286686267663842e-06,0.0005641940037642097,-0.006998246288076206,-44.26531874064949,48.03314491448239,4.7586254857889685,-1659029.2194317384,5098753.285716527,3605678.3312411355,-168.17091598375066,-4939.376529901981,6899.110233314386,0.9950025903227097,-3.974003739409274e-05,0.0003810373421288727,0.09984837746489159
1.3,-1.147996970090125e-05,0.0005507645430565135,-0.007025284412493255,-44.25588642094883,48.00985528163266,4.758424640502506,-1659030.0595898165,5098728.588831055,3605712.827222502,-167.89231524252781,-4939.3776587936045,6899.282313243042,0.9950043365417536,-3.9864437818277675e-05,0.0003824424011830454,0.09983096920165142
1.305,2.0975710703125746e-06,0.000557345700654007,-0.007005342398030604,-44.24347496270108,47.982513828244464,4.761217403470615,-1659030.8983551129,5098703.891940006,3605747.3240640694,-167.61380328925023,-4939.378760749799,6899.454313780476,0.9950060892119934,-4.003716967311395e-05,0.0003838088686067246,0.099813493671107
1.31,-2.651705007621527e-06,0.0005645906402796545,-0.0070066496710662635,-44.224676363903164,47.95814107234214,4.7580868777581635,-1659031.7357281325,5098679.195043553,3605781.821765427,-167.3354045971888,-4939.379820805544,6899.626229289,0.9950078365931067,-4.0177750262225046e-05,0.0003851950966918233,0.09979606770204709
1.315,-1.7601197846134603e-05,0.0005702192463300536,-0.007001791921295296,-44.2201036889267,47.923040812956025,4.743439273521055,-1659032.5717094813,5098654.498141795,3605816.3203261513,-167.05713489342278,-4939.38088214886,6899.798060492946,0.9950095839857173,-4.033195355631539e-05,0.0003865981615582532,0.09977863845415437
1.32,8.682691297829479e-06,0.0005919041675956111,-0.006981346761958295,-44.20403189831456,47.90097020047862,4.755981504972892,-1659033.4062996553,5098629.801234748,3605850.8197456026,-166.77893474867642,-4939.381936395,6899.969719919449,0.9950113298525389,-4.052474340120659e-05,0.0003880114989874805,0.0997612212731168
1.325,1.1665148719359217e-06,0.000565521961124782,-0.006982531665903581,-44.196185888513085,47.882011561989216,4.736576936342455,-1659034.2394991606,5098605.1043225825,3605885.320023267,-166.50086734447152,-4939.382929876895,6900.1413459672085,0.9950130702958124,-4.0657539768129804e-05,0.0003894853355067442,0.09974385489161
1.33,-1.330638863690957e-05,0.0005581528149975354,-0.006963732416593015,-44.173828614628434,47.85079611376132,4.740702630564457,-1659035.0713084517,5098580.407405311,3605919.82115877,-166.22284915513612,-4939.383978749943,6900.312855186346,0.9950148107542415,-4.0802455353343905e-05,0.0003908916709544047,0.09972648554201807
1.335,-8.399339330181513e-06,0.0005577788268459713,-0.006973861885531962,-44.1626035979399,47.816586590481414,4.742686511297843,-1659035.9017280685,5098555.710482885,3605954.323151597,-165.94499746308304,-4939.384991807192,6900.484275468267,0.995016546227085,-4.098151719055228e-05,0.00039227606884681247,0.09970916294064576
1.34,4.398686356125522e-06,0.0005828783837732791,-0.006968143837158961,-44.15031097586618,47.79713617130033,4.732570142948787,-1659036.7307587243,5098531.013555536,3605988.8260012344,-165.66726488573045,-4939.38594783104,6900.655579484921,0.99501828392185,-4.114828923586981e-05,0.00039366075846502846,0.09969181510656809
1.345,3.864987093212785e-06,0.0005396460222863447,-0.00698889278299553,-44.141460639359906,47.76439511516373,4.723744068181552,-1659037.558400922,5098506.316623339,3606023.3297071685,-165.3896142495193,-4939.3869306293345,6900.826794243219,0.9950200198638942,-4.128947551842026e-05,0.00039511107449225944,0.09967448145073896
1.35,-1.0437802886769756e-05,0.0005743174374105012,-0.0069713758653002795,-44.11825108010556,47.748909489304,4.724523734624939,-1659038.3846550966,5098481.619686269,3606057.8342688205,-165.11205555857018,-4939.387897468354,6900.997866543588,0.9950217607141181,-4.142123697930228e-05,0.0003964537126032186,0.09965709615532345
1.355,-8.261446322182256e-06,0.0005649314437306031,-0.006983411502046072,-44.10910885785403,47.71144608901435,4.733389750716788,-1659039.2095218222,5098456.922744327,3606092.3396857497,-164.83463470431903,-4939.388879594513,6901.168905118368,0.9950234968593537,-4.159719816522151e-05,0.00039787903600163604,0.09963975441423883
1.36,-2.529823966829996e-06,0.000547180919593716,-0.006974775551289439,-44.100277114614556,47.68795993058077,4.730544962463253,-1659040.0330017547,5098432.225797714,3606126.8459575917,-164.5573382623247,-4939.389765791746,6901.339831744961,0.9950252357074417,-4.176541945023472e-05,0.00039928155194501067,0.09962238270209205
1.365,-4.687780599493427e-06,0.0005375765662437514,-0.006977220455199774,-44.07185152955307,47.660874087577085,4.7195769226775734,-1659040.8550954123,5098407.528846715,3606161.3530838466,-164.28012477746157,-4939.390633732615,6901.5106702095345,0.9950269721181793,-4.1914953456004184e-05,0.00040064134061380965,0.0996050324380296
1.37,-1.2718530875765454e-05,0.0005494237591777057,-0.0069611835151672935,-44.06517914025185,47.6368307009582,4.717017833156486,-1659041.6758034197,5098382.831891262,3606195.86106402,-164.00307818925947,-4939.391547207408,6901.681399202644,0.9950287088426518,-4.206746635560459e-05,0.0004019767000688844,0.09958767606479338
1.375,2.0953008079783232e-05,0.0005585722146534171,-0.006954328481015385,-44.05326209063504,47.610388528600936,4.713543562630102,-1659042.4951263806,5098358.134931305,3606230.36989761,-163.72610620437777,-4939.392435605039,6901.852036766119,0.9950304412577797,-4.2242889779899106e-05,0.00040333953242110374,0.09957035956100596
1.3800000000000001,1.4778604638449602e-05,0.0005529455290615152,-0.006965503260226546,-44.03469737659861,47.57086613802239,4.705653849951692,-1659043.313064735,5098333.4379669465,3606264.879584139,-163.44923546546136,-4939.393307715018,6902.022574872114,0.9950321716578714,-4.233682305090997e-05,0.00040473350457177575,0.09955306004440123
1.385,-1.4099532017820117e-05,0.0005699177039419546,-0.006960030867668463,-44.0289188551926,47.55238090713907,4.7105614031325285,-1659044.1296191073,5098308.740998266,3606299.3901229603,-163.17251354491992,-4939.394164386194,6902.19295348349,0.9950339045410397,-4.244472655678e-05,0.00040611194188151973,0.09953573270614503
1.3900000000000001,5.683790177883208e-06,0.0005489070746478159,-0.00697694096445914,-44.01235662881568,47.52178549956875,4.710389000566863,-1659044.944790046,5098284.044025412,3606333.9015135523,-162.89586184787493,-4939.394977456224,6902.363283392183,0.9950356357387075,-4.262868465103031e-05,0.0004075254133554658,0.099518418978092
1.395,-4.453014263280278e-06,0.0005456639891789049,-0.006966263638225021,-43.99252366354844,47.493689919024234,4.7054909492451555,-1659045.7585780602,5098259.347048566,3606368.4137555356,-162.6193439051662,-4939.395761135845,6902.533510000405,0.9950373708631147,-4.275821982252728e-05,0.00040889153910297,0.09950106313635172
1.4000000000000001,1.4364176101888634e-05,0.0005471346881902679,-0.006947790356331802,-43.97426672700192,47.46358300799977,4.69825569697,-1659046.5709838297,5098234.650067796,3606402.926848393,-162.34296386026503,-4939.396546491995,6902.70363293576,0.9950391030296145,-4.2912153588254675e-05,0.00041024707683171604,0.09948373383575508
1.405,-1.1917745604862137e-05,0.0005656356695293844,-0.006917847684191429,-43.95705857544659,47.444403908775556,4.7024970172069285,-1659047.3820080273,5098209.953083093,3606437.440791566,-162.06671521464747,-4939.397334880965,6902.873636172658,0.9950408302992882,-4.301962457041568e-05,0.0004116109549358737,0.09946645043951631
1.41,2.6067072823245917e-05,0.0005675918130671267,-0.006932536400157054,-43.951870836353855,47.41570269805367,4.693797604645346,-1659048.1916512866,5098185.256094496,3606471.955584645,-161.79058844997297,-4939.398104030534,6903.043595334563,0.9950425498005309,-4.3197044258086494e-05,0.0004130143237918164,0.09944924152371351
1.415,1.6387549090756842e-05,0.0005634715269816371,-0.006932919196117822,-43.937898783992296,47.37721391233258,4.692010594413718,-1659048.9999140825,5098160.559102089,3606506.471227197,-161.51452998069692,-4939.398858432634,6903.213425664971,0.995044272655557,-4.328047416536938e-05,0.0004144320009554481,0.09943199599872656
1.42,1.2586768501023245e-05,0.0005505500675919239,-0.006921096200140843,-43.91742728608212,47.35766903617508,4.687596522740869,-1659049.8067969216,5098135.862106028,3606540.9877185463,-161.2386056363371,-4939.399566254543,6903.383113946694,0.9950459953080649,-4.338695912211655e-05,0.00041583702214874975,0.09941474950189931
1.425,2.0961584523524034e-06,0.0005661972809443002,-0.006938275625405742,-43.90520188892122,47.32432521583807,4.678739348705898,-1659050.612300454,5098111.165106376,3606575.505058169,-160.96280733834038,-4939.400294726587,6903.552735107162,0.995047714734801,-4.349967519433366e-05,0.0004172089562487728,0.0993975323914797
1.43,6.736553262886178e-06,0.0005582045277975319,-0.006924268756419501,-43.88967253608084,47.2925234280195,4.68378898660761,-1659051.416425265,5098086.468103107,3606610.0232455414,-160.68711700814814,-4939.401012749512,6903.722213878931,0.9950494381124746,-4.364239405180611e-05,0.0004186172058123562,0.099380272524405
1.435,-1.572926617720307e-07,0.0005467786773876026,-0.006911942335172219,-43.86451316642851,47.2714247235287,4.680983977805244,-1659052.219171969,5098061.771096385,3606644.5422800714,-160.41156459352277,-4939.401675831316,6903.891598138194,0.9950511577182576,-4.377156887667895e-05,0.0004200067267255864,0.09936304746712686
1.44,3.8947431042235886e-06,0.0005476201249637216,-0.006920938032558928,-43.86589552417519,47.25351111378634,4.678410303518672,-1659053.0205412905,5098037.074086297,3606679.06216136,-160.13616408918725,-4939.402359215322,6904.06091725478,0.9950528739737619,-4.3915041800676956e-05,0.00042136611311319465,0.09934585305197535
1.445,-6.282862910939746e-06,0.0005425295153860146,-0.006929572715992797,-43.85317947410234,47.21200711343724,4.6619735658389025,-1659053.8205336782,5098012.377072862,3606713.5828890605,-159.86079092247462,-4939.403015074656,6904.230163095334,0.9950545921636722,-4.404865319882965e-05,0.0004227285979808639,0.09932863622458804
1.45,1.3582203851906633e-05,0.0005721311030732013,-0.006910679429221625,-43.83190629144403,47.18532077470134,4.677366889876101,-1659054.6191494872,5097987.680056143,3606748.1044624997,-159.58553273594794,-4939.403672563637,6904.399212563059,0.9950563122019096,-4.420632778474358e-05,0.0004240758908647697,0.09931139789860602
1.455,-2.23412972225803e-05,0.0005456274330542856,-0.006906865225827416,-43.81327176900695,47.15698107551127,4.66590368373707,-1659055.416389425,5097962.983036317,3606782.626881086,-159.31044235438364,-4939.404257855636,6904.568221870713,0.9950580272204066,-4.432191461429232e-05,0.0004255017558945034,0.0992942065180854
1.46,3.0244085898611203e-06,0.0005655801861580203,-0.006889634751261258,-43.80228633643287,47.13075880766849,4.666332738979061,-1659056.2122542218,5097938.286013504,3606817.150144408,-159.03547638115478,-4939.404867514389,6904.737107037302,0.9950597410175047,-4.4520283141183636e-05,0.0004268527720062692,0.09927702463728401
1.465,1.2075795636774589e-05,0.0005480834782666847,-0.006883732686956502,-43.77870557969205,47.10027079870649,4.650805766443085,-1659057.0067444427,5097913.588987725,3606851.674251935,-158.76061193825598,-4939.4054439675,6904.905903631209,0.9950614502217935,-4.466048441081926e-05,0.0004282597209408472,0.09925988556085426
1.47,-1.4952501179973577e-05,0.0005455766310619547,-0.006883313099967805,-43.768276627043726,47.060529465850905,4.642274092055223,-1659057.7998607042,5097888.89195895,3606886.199203094,-158.48589269447885,-4939.40606594548,6905.074559981187,0.9950631576843495,-4.477382082931929e-05,0.0004296253907569178,0.09924276112936427
1.475,-9.955273586940046e-06,0.0005393330370219482,-0.006875904080292355,-43.75652179130829,47.03547315326472,4.658664148483546,-1659058.5916036488,5097864.194927141,3606920.724997112,-158.2112851014747,-4939.406657705245,6905.243047292924,0.9950648647459284,-4.495377197347581e-05,0.0004309781184066911,0.09922563774139821
1.48,-5.124217619230365e-07,0.0005572681385776995,-0.006894264470889354,-43.74337627022448,47.00217904431736,4.650751099650274,-1659059.3819738638,5097839.497892602,3606955.2516334704,-157.93680088290418,-4939.40715757197,6905.411495997374,0.9950665696807065,-4.511973489609086e-05,0.0004323165544409137,0.09920853275035332
1.485,-1.5283942897474643e-05,0.0005279909031646901,-0.006872866389973071,-43.718555786136406,46.96800961310704,4.659019931403121,-1659060.1709719403,5097814.800855596,3606989.779111725,-157.6624297579369,-4939.4076451806695,6905.5798057719785,0.9950682788542475,-4.526667527133692e-05,0.00043370194685383935,0.09919138204297256
1.49,-1.224163737685984e-05,0.0005531398180303714,-0.006879140553707886,-43.71386919272078,46.94035207734249,4.642870807064138,-1659060.958598631,5097790.103816287,3607024.307431309,-157.38824651550917,-4939.408078591567,6905.7480278709145,0.9950699824550776,-4.5443078988796595e-05,0.0004350108464194591,0.09917428455674203
1.495,-1.9574383500111873e-06,0.0005588631225629806,-0.006880521326057717,-43.69230220900858,46.91828520640202,4.641416016814075,-1659061.7448545415,5097765.4067747705,3607058.8365916386,-157.11411771399435,-4939.408527889648,6905.916103984232,0.9950716872886333,-4.56181565629219e-05,0.00043638306176481075,0.09915717142677877
1.5,-1.332809720525247e-05,0.0005576901400969355,-0.006864456993437827,-43.669808545692455,46.88294966302353,4.641807817760841,-1659062.529740156,5097740.709730994,3607093.3665921777,-156.8401280543201,-4939.408982504191,6906.084111713993,0.9950733921631111,-4.576907060835222e-05,0.00043777206394871265,0.09914005482049963
1.5050000000000001,1.3982740361053962e-05,0.0005533542675890755,-0.006869449288640797,-43.649111811638946,46.860891655646206,4.632368621430572,-1659063.3132562456,5097716.012685021,3607127.8974324646,-156.56630776069443,-4939.40940648764,6906.252003063444,0.995075092760345,-4.594796293521893e-05,0.0004391553316122008,0.09912297816031518
1.51,-3.9106731337656775e-06,0.0005219806061126423,-0.006876819294637078,-43.64394127602781,46.83889056460509,4.630167161065476,-1659064.095403546,5097691.315636842,3607162.42911198,-156.29261240796566,-4939.40986546257,6906.419802996192,0.9950767943074162,-4.60578454323881e-05,0.0004405345801039935,0.09910588902196826
1.5150000000000001,4.800392205490996e-06,0.0005576386979536581,-0.00687286013742776,-43.62693670709318,46.800398548204214,4.631961725545016,-1659064.8761825308,5097666.618586429,3607196.9616302857,-156.01898148338407,-4939.4102993001625,6906.587519340301,0.9950784974174112,-4.6204476047555e-05,0.00044183134625345907,0.09908878154319542
1.52,9.522240977981222e-06,0.0005388566763317607,-0.006849433818350926,-43.608331100830355,46.76872182568361,4.627517155985143,-1659065.655593741,5097641.921533985,3607231.494986849,-155.74550267445858,-4939.410678507229,6906.7551058754825,0.9950801992124981,-4.633826508344582e-05,0.000443218977152177,0.09907168387041096
1.5250000000000001,2.8163291935856055e-06,0.0005322248924497513,-0.0068383018856418756,-43.59878129141459,46.74247221585152,4.622468400210336,-1659066.4336379052,5097617.2244796725,3607266.0291810487,-155.47216299539505,-4939.411046580927,6906.922574168935,0.9950818949320868,-4.6455629686331995e-05,0.00044456105609272693,0.09905464444290066
1.53,4.478919343473136e-06,0.000547321873569173,-0.006841705056852476,-43.575629669267585,46.70801505989968,4.618348090915611,-1659067.210315591,5097592.527423556,3607300.5642123274,-155.1989112917615,-4939.411399881502,6907.089937166537,0.9950835876085077,-4.6588021959535375e-05,0.00044588497764573934,0.09903763268740035
1.5350000000000001,-1.4072216963479953e-05,0.0005372458312463152,-0.006849123570993395,-43.56135704079402,46.67728985762528,4.617469765131243,-1659067.9856274303,5097567.830365698,3607335.100080108,-154.92582446224083,-4939.411743629774,6907.257175165074,0.9950852808181134,-4.672001989535765e-05,0.0004472468672140043,0.0990206124330488
1.54,-1.2364737526884481e-05,0.0005384500096892147,-0.006835858266655671,-43.54875322419028,46.645034878538354,4.618821518750857,-1659068.7595741418,5097543.1333062,3607369.636783809,-154.65286014301242,-4939.412055491041,6907.42430517207,0.9950869755800195,-4.689568167911616e-05,0.0004485790971182787,0.09900357371629835
1.545,-5.778815908107516e-06,0.0005380422644939492,-0.0068594824382218565,-43.54139223348128,46.62043054876671,4.611331679821222,-1659069.5321563333,5097518.436245262,3607404.1743228864,-154.38001642195638,-4939.412319774365,6907.59132583395,0.9950886667645081,-4.7067378891279e-05,0.0004499147467178171,0.0989865679686709
1.55,1.4746130331424358e-05,0.000534822416144929,-0.006827249221625438,-43.51388126800165,46.59374265861579,4.611350887083319,-1659070.303374486,5097493.739183017,3607438.712696799,-154.10724473007883,-4939.412578207492,6907.7582392287795,0.9950903635029894,-4.722261781857222e-05,0.0004512510088427533,0.09896950341413131
1.555,-2.509477508615341e-05,0.0005343260093334986,-0.006847429765488011,-43.50357077015151,46.561386131773325,4.602286151737946,-1659071.0732292202,5097469.042119477,3607473.2519050827,-153.83464893322275,-4939.412837565395,6907.925074315448,0.9950920519792098,-4.732596326126951e-05,0.0004525843428993215,0.09895251899507866
1.56,-2.941986526356984e-06,0.0005512752131320611,-0.006830051784978819,-43.476492280532355,46.52558646780483,4.596321527282315,-1659071.841721218,5097444.34505467,3607507.79194719,-153.5621502040467,-4939.413085408053,6908.091768618961,0.9950937451510381,-4.7528322142591814e-05,0.0004539065836141265,0.09893548438832694
1.565,1.3165912563151434e-05,0.0005421759959234047,-0.006826684611409031,-43.45996760886082,46.49663645814287,4.59632686940189,-1659072.6088511785,5097419.6479886165,3607542.332822438,-153.2898339610162,-4939.41333588388,6908.258330453613,0.9950954337153143,-4.7679743230869734e-05,0.0004552764706191604,0.09891849295712077
1.57,-8.334566849765504e-06,0.0005462538892704925,-0.006833377846331733,-43.45249098200587,46.46489556151228,4.594417002365439,-1659073.3746198842,5097394.950921378,3607576.8745302535,-153.01764825924948,-4939.4135596316,6908.424795761921,0.9950971211673311,-4.77888380284693e-05,0.00045662770484105475,0.0989015098563016
1.575,8.591986569306992e-06,0.0005334880994376492,-0.00681837931142256,-43.44096149930624,46.429562335296986,4.591978703920419,-1659074.1390278921,5097370.25385313,3607611.417070094,-152.74555497227948,-4939.413739277714,6908.591140479013,0.99509880997508,-4.795243639027673e-05,0.0004579837668044483,0.09888451009947388
1.58,9.868407424070783e-06,0.000553647659193308,-0.006833872331263003,-43.41625531047796,46.40777467797585,4.583161129548584,-1659074.9020757247,5097345.55678409,3607645.960441325,-152.47357801768288,-4939.41387692485,6908.757351816768,0.995100494800077,-4.8070752735230815e-05,0.0004593122568108609,0.09886754760838105
1.585,1.375055937592694e-06,0.0005316036530551759,-0.006832229135855737,-43.40698361730401,46.36996822611672,4.587375567049287,-1659075.6637640302,5097320.859714258,3607680.5046433983,-152.2017442086973,-4939.414055783534,6908.923477678224,0.9951021831398335,-4.8190894254453424e-05,0.00046069121228197466,0.09885054654164513
1.59,1.5987994930969427e-06,0.0005445564161878912,-0.006831791971642351,-43.384888550971986,46.34970728737752,4.581651201695261,-1659076.4240934646,5097296.162643729,3607715.049675785,-151.93002954371704,-4939.414156086598,6909.089476881957,0.9951038708056593,-4.832671559339095e-05,0.00046201322878809925,0.09883354954618724
1.595,-5.751644752781841e-06,0.0005362773760649753,-0.00681196424015401,-43.357198343274035,46.31242794474285,4.5695592209547415,-1659077.1830646573,5097271.465572629,3607749.5955379857,-151.65844754611985,-4939.414283607284,6909.255403337105,0.9951055580564352,-4.846518021189024e-05,0.00046336752385667376,0.09881655360745417
1.6,-3.4065134374983127e-06,0.0005439359111784771,-0.006791509638840407,-43.347071075450444,46.28492320072163,4.574791291069787,-1659077.94067839,5097246.768500831,3607784.1422294304,-151.38704549600806,-4939.414435643003,6909.421174615151,0.9951072401263846,-4.8619862751670334e-05,0.0004646994090309894,0.09879960697603109
1.605,1.1181085199447251e-05,0.0005585367169671365,-0.006782279511565249,-43.3309494602688,46.24586146578895,4.569779708894411,-1659078.696935377,5097222.071428415,3607818.689749528,-151.1157493285337,-4939.414530576302,6909.586864583311,0.9951089168459072,-4.877057902197531e-05,0.00046605092846082046,0.09878271119850943
1.61,-3.1876425794485287e-06,0.0005393272413703649,-0.006792610936915568,-43.31581798303982,46.212920052743875,4.569021032129958,-1659079.4518362337,5097197.374355603,3607853.238097696,-150.84459338077636,-4939.414594353228,6909.752402470784,0.9951105909823844,-4.888859966812974e-05,0.00046744237486743266,0.09876583833604004
1.615,1.1918133410740664e-05,0.0005292930131458922,-0.006777271083473886,-43.296681243722986,46.185745366666964,4.5597540240315,-1659080.2053816365,5097172.677282562,3607887.7872732626,-150.5735677600943,-4939.414622250543,6909.917824242837,0.9951122674021321,-4.9037635456552475e-05,0.00046878248314570573,0.09874893976180875
1.62,-1.974850254489824e-05,0.0005318724279884026,-0.006780432677747035,-43.274624354730854,46.150198898719445,4.556122911807834,-1659080.9575722292,5097147.980209333,3607922.3372756555,-150.3026692334968,-4939.414669287184,6910.083132778728,0.9951139397604142,-4.914659622215748e-05,0.00047010135940824796,0.09873207930470669
1.625,1.8978748198267197e-05,0.0005386137107337793,-0.00676963257264671,-43.26382599560541,46.115161287989785,4.5532008793473295,-1659081.7084087348,5097123.28313591,3607956.8881042674,-150.03193306038412,-4939.414699902497,6910.248312163993,0.9951156126045964,-4.9334977143868355e-05,0.00047141883589362697,0.09871521099060739
1.6300000000000001,1.0226252199930526e-05,0.0005467056650593047,-0.006786921220525728,-43.242853865026696,46.097785624246626,4.5558606557442705,-1659082.457891839,5097098.586062437,3607991.4397584414,-149.76130866056494,-4939.414689518039,6910.413357289886,0.9951172824930088,-4.942866376113249e-05,0.00047276264188607207,0.09869836946992122
1.635,4.318290090407831e-06,0.0005280502264504068,-0.006773286851455598,-43.22701589310692,46.05995771231066,4.552026265658548,-1659083.2060221543,5097073.888989019,3608025.992237744,-149.4908174440032,-4939.414677535474,6910.578363818617,0.9951189563490912,-4.954614185454068e-05,0.0004741244170717818,0.0986814849194752
1.6400000000000001,2.337208681367572e-06,0.0005251536323218008,-0.006781051809605606,-43.20955502031141,46.019977446333264,4.54561390227915,-1659083.952800359,5097049.191915745,3608060.5455417195,-149.22046443962117,-4939.414631958857,6910.743226305889,0.9951206265751986,-4.967369921941155e-05,0.0004754383253415628,0.09866463426936004
1.645,-1.4674270970387378e-05,0.0005323464756000144,-0.006786044435511687,-43.19647797601319,45.99767692684232,4.541909217618197,-1659084.6982271639,5097024.494842762,3608095.09966961,-148.95025742975545,-4939.4145612996645,6910.90793007391,0.9951222984324329,-4.980547985825981e-05,0.0004767445377016634,0.0986477642757903
1.6500000000000001,-1.9328185135854823e-05,0.0005417121527904815,-0.006759271814166369,-43.1681385521826,45.961017837775096,4.545273822117722,-1659085.442303179,5096999.797770142,3608129.654620813,-148.6801487117742,-4939.414486680447,6911.072550996612,0.9951239712223147,-4.9981361584813524e-05,0.00047806444833791654,0.098630881852373
1.655,-7.69610156672729e-06,0.0005559527458109488,-0.006743966853533714,-43.15439009612775,45.933885965952896,4.537557523061792,-1659086.1850291546,5096975.100697979,3608164.2103948477,-148.4102414918098,-4939.414378320055,6911.237062857555,0.9951256371118236,-5.0171098715722904e-05,0.0004794065146571358,0.09861406601008706
1.6600000000000001,-1.2784239773393806e-05,0.000521269881681296,-0.006774260306254135,-43.13000483036932,45.90977103141029,4.527901542379496,-1659086.926405856,5096950.4036263535,3608198.7669911585,-148.14043899952858,-4939.414272019214,6911.401461522933,0.9951272989271239,-5.033538983453172e-05,0.0004807868784241791,0.09859728819968927
1.665,2.1665254334204376e-05,0.0005488825402696009,-0.006763717792451803,-43.12301879272382,45.8611218650291,4.53318444208649,-1659087.6664339062,5096925.7065551635,3608233.3244092185,-147.87078114451853,-4939.414204035755,6911.565762447275,0.9951289679646503,-5.0503826622797136e-05,0.0004820796993871673,0.09858043500683514
1.67,3.2633638723336037e-06,0.000516322401717161,-0.006759257431124569,-43.10074984386652,45.83449065700733,4.524540127094502,-1659088.4051139907,5096901.009484595,3608267.8826483586,-147.601252644612,-4939.414023521653,6911.729893585075,0.9951306340882744,-5.0593351636648315e-05,0.00048344970704872225,0.09856360796847108
1.675,7.616049872151107e-06,0.0005433927905819113,-0.0067500597469438905,-43.078072984914336,45.79347994602028,4.521891103534033,-1659089.142446785,5096876.312414868,3608302.441707887,-147.3318650609868,-4939.413867204602,6911.893917885744,0.9951322988637389,-5.0720628845517985e-05,0.0004847341767653433,0.0985467920247336
1.68,1.6528525131738175e-05,0.0005289260080784019,-0.006751033361526924,-43.05765987641062,45.76344233159856,4.51703758816466,-1659089.8784330813,5096851.615346001,3608337.001587167,-147.06265349906988,-4939.4136791894525,6912.057793956301,0.9951339610554263,-5.084373539763799e-05,0.0004860870664130259,0.09852999892629574
1.685,-6.012332853574002e-06,0.0005318797140257852,-0.006748958079765771,-43.03604814908679,45.74128412203457,4.507390288428777,-1659090.6130736787,5096826.918278082,3608371.5622855476,-146.79358542281247,-4939.413488787851,6912.221558399946,0.9951356232204374,-5.094110682115961e-05,0.0004874061601966405,0.09851320336843417
1.69,-2.1627819400913555e-06,0.0005077588226275231,-0.00675029646638745,-43.01599084070012,45.700008400731306,4.511288588325032,-1659091.3463692572,5096802.221211021,3608406.123802521,-146.52464602458127,-4939.413335490205,6912.385230797115,0.9951372845827412,-5.109528117580435e-05,0.0004887270510195992,0.0984964129724034
1.695,-4.156750681129599e-06,0.0005086314197868304,-0.006749507736374053,-43.013579672882045,45.671898996412864,4.507528258777788,-1659092.0783205717,5096777.524144886,3608440.686137523,-146.25587973864177,-4939.4131187032435,6912.54877004488,0.9951389460195426,-5.1233940518770526e-05,0.0004899888804530865,0.09847961921684255
1.7,5.214130062154034e-06,0.0005321073902463669,-0.006756506419407138,-42.98396355352683,45.63595047235229,4.499449749117125,-1659092.808928206,5096752.827079931,3608475.2492899327,-145.98717400325341,-4939.412862955983,6912.712193933872,0.9951406069758556,-5.137777440336217e-05,0.0004912523898226164,0.09846282739765055
1.705,3.865357626941762e-06,0.0005234613965796076,-0.0067221655479308,-42.96725020783332,45.60066605288202,4.499905102184724,-1659093.5381927895,5096728.130016217,3608509.813259119,-145.71865942409883,-4939.41262269338,6912.875480542979,0.9951422693419963,-5.15040822847144e-05,0.0004925766095896173,0.09844601812401982
1.71,5.33289328357074e-06,0.0005236808330746252,-0.006722095802510096,-42.95383231909761,45.579114590784506,4.494141709441682,-1659094.2661151579,5096703.432953812,3608544.3780444353,-145.45028783164395,-4939.41233946791,6913.038646011651,0.9951439229825831,-5.163157550461068e-05,0.0004938789917000885,0.09842929426017802
1.715,-8.845677586315492e-06,0.000524657780378004,-0.0067414251977190864,-42.92478074378941,45.54272837581201,4.496333677432452,-1659094.9926959074,5096678.735892806,3608578.9436453655,-145.18201196425298,-4939.412062682069,6913.2017260535085,0.9951455763231732,-5.1755471598198306e-05,0.0004951822807277187,0.09841257054004585
1.72,-7.663758366254049e-06,0.0005005591409857622,-0.0067253039834706254,-42.914261377335954,45.515947831396666,4.488738675826367,-1659095.7179357838,5096654.038833253,3608613.5100614186,-144.9139386667117,-4939.411758680574,6913.364695261909,0.9951472341327944,-5.191490632090771e-05,0.0004964845092511965,0.09839579872039199
1.725,8.295905131632754e-06,0.0005516032124401071,-0.006718988159648291,-42.89546315754904,45.474824848257164,4.484459458979299,-1659096.441835518,5096629.34177523,3608648.077292033,-144.64595501538528,-4939.411450387674,6913.527550321283,0.9951488877232064,-5.2065452547704094e-05,0.0004977270762293743,0.09837906698180965
1.73,-4.3045402563442983e-07,0.0005168662345059746,-0.006730263439245092,-42.88142336324235,45.43978820651088,4.483289872031355,-1659097.1643957254,5096604.644718833,3608682.6453365306,-144.37812794808227,-4939.411108561643,6913.690248864463,0.9951505394160425,-5.218883946768317e-05,0.0004991005602575473,0.09836235090173218
1.735,-3.518650389339328e-06,0.0005359715200784146,-0.00672170280266403,-42.85866186609933,45.41002004011308,4.47667762803411,-1659097.8856171186,5096579.947664249,3608717.214194204,-144.11042927065168,-4939.410725203982,6913.852820506788,0.9951521936407052,-5.232540851708805e-05,0.0005003854755038375,0.09834560675759806
1.74,-1.5443165747383637e-05,0.0005312288465293758,-0.006708920925786424,-42.835968143953096,45.37033178467722,4.472934386703058,-1659098.605500396,5096555.250611557,3608751.7838644516,-143.84288178722923,-4939.41035173474,6914.015278474042,0.9951538454532148,-5.247434720827841e-05,0.0005017171641183808,0.09832888388469169
1.745,-1.4597488221988343e-05,0.0005274421734424757,-0.006684345553371006,-42.81636763570339,45.34368900131439,4.479180832597364,-1659099.3240463668,5096530.5535607925,3608786.3543466236,-143.57550651294162,-4939.409953814178,6914.177590402861,0.9951554938457873,-5.265177081616174e-05,0.0005030341237321613,0.09831219279931043
1.75,-3.0689400955840604e-06,0.0005173036317438238,-0.006699489225203462,-42.79829729948705,45.30830090612491,4.472680108268101,-1659100.041255831,5096505.856512118,3608820.9256401868,-143.30827917630901,-4939.409515841407,6914.339834730969,0.9951571359224183,-5.282612886164101e-05,0.0005043418734686273,0.09829556282642886
1.7550000000000001,-1.1810292813890363e-05,0.000525665528365386,-0.0066733677557717416,-42.7835789141031,45.27562439148944,4.4627740714245,-1659100.7571295092,5096481.159465667,3608855.497744621,-143.04119203970086,-4939.409064732852,6914.501938985115,0.9951587814545154,-5.296933275972615e-05,0.0005056272304706391,0.09827889513683839
1.76,5.191860898895502e-06,0.0005217892695320265,-0.0066848332355347595,-42.76345673705447,45.24382245206299,4.457284947987716,-1659101.4716680413,5096456.462421472,3608890.0706592235,-142.77422084634065,-4939.408613326297,6914.663901964454,0.9951604202771448,-5.313630570330164e-05,0.0005069312466005106,0.09826229241708553
1.7650000000000001,1.195191859193784e-06,0.0005264443076223868,-0.0066844197042979885,-42.74588669980367,45.2000032054703,4.458960751270914,-1659102.1848720785,5096431.765379545,3608924.644383338,-142.5073939754476,-4939.408157224731,6914.825743909643,0.9951620616443337,-5.3260041261214756e-05,0.0005082297939931651,0.09824566112375561
1.77,-1.6535716314098772e-05,0.0005420578250279012,-0.006673855409923093,-42.73081162877117,45.171217907150705,4.452642208818038,-1659102.8967423898,5096407.068340064,3608959.2189162825,-142.24073053157798,-4939.407635275171,6914.987433957374,0.9951637026238729,-5.339486295548599e-05,0.0005095389409528477,0.09822903083610406
1.7750000000000001,2.3894924492517783e-05,0.0005331662133161035,-0.006671411490896932,-42.705275482279205,45.14408281191869,4.448709987189169,-1659103.6072796718,5096382.371303204,3608993.79425739,-141.9741823007171,-4939.407108545215,6915.1490088424525,0.9951653407076086,-5.3577618319743516e-05,0.0005108825799694157,0.0982124268243971
1.78,2.937121506686523e-06,0.0005556102553470168,-0.006661837163443702,-42.68673179343716,45.11132926170453,4.448053077492193,-1659104.3164846185,5096357.674268952,3609028.370406138,-141.7077964099934,-4939.406592756916,6915.310490376609,0.995166977929328,-5.365759944961561e-05,0.0005122140245891249,0.09819582881499389
1.7850000000000001,-1.347443086101472e-05,0.0005152737389069785,-0.006685657795837846,-42.659445513596246,45.06787874429122,4.439000633216524,-1659105.0243579987,5096332.97723735,3609062.9473620118,-141.44155563597593,-4939.406047750977,6915.471859240079,0.9951686124908202,-5.379521936614262e-05,0.0005135961643515576,0.09817925462209504
1.79,1.8078137648846926e-05,0.0005276436142822925,-0.0066874015593985795,-42.64311664043107,45.02932112049077,4.4378076351105875,-1659105.7309006564,5096308.2802084815,3609097.5251242984,-141.17550746204194,-4939.405499752516,6915.633055507593,0.9951702526698163,-5.396379998476298e-05,0.0005148739184938179,0.09816262116432266
1.795,-1.51611138185307e-05,0.0005254035650561309,-0.006653909577190104,-42.61180559018713,45.00528398166798,4.438582873044197,-1659106.436113435,5096283.583182465,3609132.1036922177,-140.90960404776104,-4939.404906796223,6915.794112190243,0.9951718929852988,-5.405691803729928e-05,0.0005161901907931573,0.09814598329831631
1.8,2.902738859137517e-05,0.0005123681201464892,-0.006657215123112144,-42.60221195362769,44.97726637923903,4.427498052998717,-1659107.139997169,5096258.886159386,3609166.683065263,-140.64388946096437,-4939.404325113711,6915.955105930821,0.9951735248029261,-5.423214014654989e-05,0.000517492738641607,0.09812942877373966
1.805,1.2549830826921122e-06,0.0005275330638836681,-0.006656960804266631,-42.58418772881549,44.93860269832513,4.421331472168805,-1659107.8425525373,5096234.189139202,3609201.2632429525,-140.37825789811842,-4939.4037479725985,6916.115969792708,0.9951751571771418,-5.429423054603355e-05,0.0005187736950548528,0.09811286594244996
1.81,5.763089559584903e-07,0.000534965334659586,-0.0066250393347578075,-42.55782158307826,44.89661766716929,4.429160230381589,-1659108.5437801133,5096209.492121961,3609235.8442245796,-140.11277247817006,-4939.403148596405,6916.276681065701,0.9951767891882116,-5.442913631082394e-05,0.0005200855687204702,0.0980963037505088
1.815,4.6736077510055486e-07,0.0005469543171178715,-0.00664069884060866,-42.54067392400465,44.85936122552613,4.4207103361319975,-1659109.243680781,5096184.795107886,3609270.4260094627,-139.84749456530434,-4939.4024811935205,6916.437272103509,0.9951784130850098,-5.456751175335341e-05,0.0005214157712053162,0.09807982094998993
1.82,2.102164105845314e-05,0.0005083925205786244,-0.00663787586872652,-42.52492257470687,44.84231769740893,4.423955617874936,-1659109.9422554008,5096160.098097179,3609305.0085969158,-139.5823533820513,-4939.401801972931,6916.59770912943,0.9951800405304051,-5.470911834388865e-05,0.0005227757726368809,0.09806329916082371
