t_s,gyro_x_radps,gyro_y_radps,gyro_z_radps,accel_x_mps2,accel_y_mps2,accel_z_mps2,ins_pos_ecef_x_m,ins_pos_ecef_y_m,ins_pos_ecef_z_m,ins_vel_ecef_x_mps,ins_vel_ecef_y_mps,ins_vel_ecef_z_mps,ins_quat_w,ins_quat_x,ins_quat_y,ins_quat_z
0.0,-1.7377427186227923e-05,0.0005999012963473732,-0.007380000941607505,-45.30457907794443,51.86615608761013,5.1415965543295,-1658763.5840503734,5105149.374697655,3596773.925093057,-242.6143302865707,-4938.608152381165,6852.28340073394,0.9945218953682734,0.0,0.0,0.10452846326765354
0.005,6.415112150749128e-06,0.0006303842092429765,-0.007405838273742737,-45.30946461981286,51.869353370361175,5.144597697139897,-1658764.7963942348,5105124.681645753,3596808.1869741296,-242.32321427380208,-4938.6126086191325,6852.469028278365,0.9945238237482783,-1.9997248109225357e-07,1.486996346209884e-06,0.1045101143184354
0.01,9.654890026613564e-06,0.000604589346404643,-0.0074076971444656334,-45.30569903289811,51.86185193168834,5.134273059954288,-1658766.0072824708,5105099.988571588,3596842.449783405,-242.0320801248263,-4938.6170575073365,6852.654681777957,0.9945257585367577,-3.487538719498914e-07,3.0559990392312096e-06,0.10449170109355997
0.015,1.3747336906802413e-06,0.000603252611491888,-0.007412197638240164,-45.31384222360689,51.859984985468756,5.123150698119293,-1658767.216715094,5105075.295475082,3596876.7135208296,-241.7409691137738,-4938.621545021003,6852.840288113322,0.9945276934676578,-4.827417977747835e-07,4.561713915506999e-06,0.10447328321086839
0.02,2.083198649237595e-06,0.0006088249645071987,-0.007394823596051647,-45.31830771509021,51.85384693815279,5.132227249686891,-1658768.4246920582,5105050.602356062,3596910.978186194,-241.44981662417842,-4938.626062590611,6853.0258576277565,0.9945296292304563,-6.369677539981776e-07,6.0619425972572e-06,0.10445485410251822
0.025,9.472428093892043e-06,0.0006213038336133736,-0.007386771401188844,-45.322373941532206,51.8670540778666,5.146784513421222,-1658769.6312132818,5105025.909214585,3596945.2437794195,-241.15867280485605,-4938.630528453828,6853.211432647253,0.9945315601131796,-7.908871215222679e-07,7.57621098653852e-06,0.10443646815562431
0.03,6.407715737630269e-06,0.0005937570914120666,-0.007376549355028323,-45.3383039636949,51.84933179096754,5.137033212519978,-1658770.8362787412,5105001.216050848,3596979.5103007695,-240.86751099060803,-4938.634965914256,6853.397107264795,0.9945334885514396,-9.296924040833757e-07,9.123435224600146e-06,0.1044181021930691
0.035,4.349245803144829e-06,0.0006370097984323853,-0.007408513805793758,-45.33829917746974,51.85455738503252,5.13873481109642,-1658772.0398882779,5104976.522864995,3597013.7777502323,-240.57630367968366,-4938.639375768578,6853.58267789378,0.9945354139809142,-1.0689264044979553e-06,1.0601369060627012e-05,0.10439976161026462
0.04,6.339046193894047e-07,0.000615958327786418,-0.007404956519007717,-45.331457788250745,51.85050535091489,5.140485387323435,-1658773.242041774,5104951.82965706,3597048.046127635,-240.28509472398957,-4938.643798094092,6853.768283293471,0.9945373474098879,-1.224568235588113e-06,1.218630642036108e-05,0.1043813415170471
0.045,1.4810704684697576e-06,0.0005902681067302063,-0.0074080619858437734,-45.333011246361096,51.83782554394754,5.138502560582213,-1658774.4427393402,5104927.136427,3597082.3154330733,-239.9939318049607,-4938.648225649535,6853.953891928357,0.994539279567765,-1.3839541199264619e-06,1.371793307159974e-05,0.10436293023259795
0.05,-8.036536325680162e-06,0.0006126676993164434,-0.007385937364410825,-45.33672552709588,51.838745166912425,5.138409036218425,-1658775.6419811407,5104902.443174846,3597116.585666431,-239.7027883917088,-4938.652636170978,6854.1394511293665,0.9945412121935229,-1.5345309941367713e-06,1.518590590428618e-05,0.10434451119091827
0.055,-9.20261611227792e-06,0.0006217429615361571,-0.007407686869876293,-45.348841668793206,51.82954253965198,5.141064448657448,-1658776.8397671925,5104877.7499006335,3597150.8568276074,-239.411632312613,-4938.657048787715,6854.325019451432,0.9945431387045807,-1.714614344704682e-06,1.6707089336456504e-05,0.10432614712321456
0.06,-1.1080716256387643e-05,0.0005921644623744645,-0.007407808324019366,-45.356339963299796,51.8274377268244,5.142271897590313,-1658778.0360973934,5104853.056604481,3597185.1289165467,-239.12044804550752,-4938.661412210424,6854.51055629343,0.9945450705454013,-1.8999648625497875e-06,1.8250532887549188e-05,0.1043077289425436
0.065,1.1162266997320084e-05,0.0005881891925600757,-0.007382220665601835,-45.35833927049635,51.82273782501912,5.12838582354676,-1658779.2309716172,5104828.363286556,3597219.4019331634,-238.82924140215079,-4938.665757880151,6854.696090392536,0.9945470020758459,-2.0822718582519315e-06,1.971994380452265e-05,0.10428931042410533
0.07,-1.0411317833276474e-05,0.0005833181068155896,-0.0073890287657994835,-45.36104058835786,51.81781959657058,5.141533782967919,-1658780.4243897765,5104803.669946784,3597253.675877324,-238.53802238008794,-4938.670150753741,6854.881573733581,0.9945489265932121,-2.208236915617339e-06,2.1185270129687243e-05,0.10427095548904142
0.075,-1.9365558993817907e-05,0.0005961199405108676,-0.007410072299096144,-45.357609055350125,51.8179987789216,5.136819901961886,-1658781.6163518897,5104778.976585202,3597287.950748959,-238.24682285931843,-4938.674482262549,6855.0670803969415,0.9945508525442383,-2.3865725149749372e-06,2.2632861331495324e-05,0.1042525835919032
0.08,-8.001064517735501e-06,0.0006056830530808368,-0.007396879271261553,-45.37387730430825,51.81324076790317,5.139287761328758,-1658782.8068580418,5104754.283201878,3597322.226548126,-237.95563804542954,-4938.678847135554,6855.252586373741,0.9945527836365855,-2.5905094852373137e-06,2.410994882955427e-05,0.1042341593371324
0.085,-1.040333126479692e-05,0.0006057834042967623,-0.007408792219156512,-45.38319964873072,51.80980136835692,5.140211591422051,-1658783.9959081323,5104729.589796848,3597356.503274779,-237.66439808598804,-4938.683165178496,6855.438074820848,0.9945547109475679,-2.7686811928603066e-06,2.5613775376626278e-05,0.10421576784857794
0.09,-1.6209721283791805e-05,0.0006089598889146199,-0.007390133871910175,-45.38038841781498,51.78993715507014,5.138486734149033,-1658785.1835019516,5104704.896370285,3597390.780928848,-237.3731296514434,-4938.687459782622,6855.623552738666,0.9945566410193909,-2.95285277208989e-06,2.7117225459160742e-05,0.10419734670404629
0.095,1.6451947922500987e-05,0.0006109732299008496,-0.007401496296353381,-45.397034268793135,51.801429293107056,5.13601258047679,-1658786.3696395599,5104680.2029223135,3597425.059510121,-237.08191369739697,-4938.691728968159,6855.808956553078,0.9945585658879476,-3.152287497951277e-06,2.8627061128686323e-05,0.10417897191594591
0.1,-1.2875813793413566e-05,0.0005958396973290474,-0.007392572229648124,-45.3832698560523,51.79695183436621,5.139163429008984,-1658787.5543208562,5104655.5094529735,3597459.339018499,-236.7906048100524,-4938.696007064049,6855.994394590198,0.9945604933736145,-3.2710375481847963e-06,3.0150409310420912e-05,0.10416056883814337
0.105,-1.8332887995175303e-05,0.000595433861887775,-0.007365082698891048,-45.389114837672324,51.77601196616246,5.135932339815414,-1658788.737545807,5104630.81596221,3597493.619454095,-236.49937547744773,-4938.700298171534,6856.179843969543,0.9945624181939621,-3.4587667141313197e-06,3.162849252984566e-05,0.10414218791562807
0.11,-2.1205339168556164e-07,0.0005985979544691205,-0.007378799649684465,-45.396344902146026,51.78681519148959,5.130828884214231,-1658789.9193146455,5104606.122450091,3597527.9008167135,-236.2081599171022,-4938.704549477206,6856.36520320956,0.9945643355165927,-3.65995654607012e-06,3.310414612532564e-05,0.10412387530801301
0.115,-3.2255901447602636e-06,0.0006031255174711257,-0.007393834796821845,-45.39944278030887,51.770914525817126,5.1364645687629364,-1658791.0996272736,5104581.428916623,3597562.1831062078,-235.91689140947898,-4938.708837900621,6856.550594579292,0.9945662560697524,-3.816915316368504e-06,3.459238384687386e-05,0.10410552855729543
0.12,8.30582971394359e-06,0.0006203089967565883,-0.007393726710540462,-45.397803769029906,51.773783306791955,5.136527428716876,-1658792.27848363,5104556.7353618555,3597596.466322553,-235.62565108737985,-4938.713068698213,6856.735943390272,0.9945681801942193,-3.9825466513732835e-06,3.609109450194674e-05,0.10408714438743681
0.125,-2.6216127562439346e-06,0.000599592897181723,-0.007384546228457786,-45.399475382772756,51.76187289908195,5.142081971777856,-1658793.4558838042,5104532.041785893,3597630.7504656967,-235.3344186618085,-4938.717316446284,6856.92131426017,0.9945701039469789,-4.123977465318531e-06,3.7635531181392906e-05,0.10406876044930712
0.13,1.1297790834884016e-05,0.0006248988914167317,-0.007381136038138123,-45.403742930312625,51.758962338599396,5.142305074771946,-1658794.6318278846,5104507.348188804,3597665.035535632,-235.043213413368,-4938.721518919839,6857.106659786009,0.9945720249713649,-4.287187936040485e-06,3.9125615895811194e-05,0.1040503993032466
0.135,1.712702801948453e-06,0.0006044626951110464,-0.007417791753319036,-45.4114904453254,51.75274132614899,5.1317083589734445,-1658795.8063159192,5104482.654570727,3597699.3215322797,-234.75200041015975,-4938.725712336103,6857.29199930128,0.9945739447651986,-4.422371195201472e-06,4.068224301693545e-05,0.10403204659906284
0.14,9.94334799875402e-06,0.0006119698799537682,-0.007383037496570823,-45.41437692934997,51.75282588782162,5.138511142931786,-1658796.9793478108,5104457.9609316345,3597733.608455493,-234.46075628911623,-4938.729924578172,6857.477286165959,0.9945758737517321,-4.5760758296495044e-06,4.2185563557029985e-05,0.10401360271818597
0.145,3.333350142749921e-06,0.0006143103795930589,-0.007373529594506824,-45.41221383050852,51.74696431018418,5.133086377191712,-1658798.1509234854,5104433.267271544,3597767.8963052058,-234.16951356874674,-4938.734111533995,6857.66259879406,0.9945777933575457,-4.711263917713608e-06,4.3709690890141976e-05,0.10399524521487499
0.15,-1.1601688341030748e-05,0.0006007802800920275,-0.007414939456519724,-45.41636343902216,51.74247483213442,5.133893340675124,-1658799.3210429945,5104408.57359047,3597802.1850814107,-233.87829002742473,-4938.738318198533,6857.84788318184,0.9945797101503476,-4.863494859980278e-06,4.523791932181177e-05,0.1039769113175012
0.155,-1.380314017819472e-05,0.0006149547217456705,-0.007376335235215608,-45.42627032809407,51.72573290422324,5.132781678435872,-1658800.4897063768,5104383.879888399,3597836.474784011,-233.5870628899245,-4938.742510113777,6858.0331568928605,0.9945816373665096,-5.049348654539681e-06,4.6728623080397956e-05,0.10395847442268873
0.16,1.589452530645872e-05,0.0006070605028076188,-0.007401446568903257,-45.423126011447145,51.73390515682274,5.122499135992444,-1658801.6569136,5104359.1861654855,3597870.765412803,-233.295826365115,-4938.746655081206,6858.2183599680675,0.9945835542056031,-5.244355629812851e-06,4.825399925975169e-05,0.10394013347980025
0.165,-1.2737152498998816e-07,0.0006137359617429922,-0.007406236006304703,-45.42832457360293,51.71752358288513,5.127279247840978,-1658802.8226646197,5104334.492421666,3597905.0569676505,-233.0045815039764,-4938.7508729714145,6858.40357895517,0.9945854772295285,-5.363472292946541e-06,4.976746339075895e-05,0.1039217300594244
0.17,-2.591151410471349e-06,0.0006059661689672274,-0.007379364878513873,-45.43141221330944,51.72349323059159,5.132828557205448,-1658803.9869594614,5104309.798656905,3597939.349448471,-232.71335520549079,-4938.755031167361,6858.588749282886,0.9945874011536578,-5.524161727992332e-06,5.129336316856232e-05,0.10390331469634397
0.17500000000000002,-4.398116063184524e-06,0.0005806397669023348,-0.007378141985555865,-45.42741983064861,51.71627650611302,5.130888140905136,-1658805.149798142,5104285.104871373,3597973.642855258,-232.42211703203532,-4938.759182017572,6858.77396555966,0.9945893177567028,-5.688955558384726e-06,5.279930396757555e-05,0.10388496611216629
0.18,-1.9706229139521563e-06,0.0006198335023030899,-0.007397376300886122,-45.43303565592349,51.69977236833922,5.124247274545863,-1658806.3111807173,5104260.411065068,3598007.9371880703,-232.13091314494545,-4938.763339528974,6858.9591593899395,0.9945912337048289,-5.8516646137117276e-06,5.424180205237012e-05,0.10386662053369858
0.185,4.376843595492792e-06,0.0006222800613213281,-0.007382652588986416,-45.4359506142585,51.702118115637326,5.124680627335339,-1658807.471107279,5104235.717238016,3598042.232446648,-231.8397114961316,-4938.767481244667,6859.1442717165655,0.9945931543006679,-6.0185176688769885e-06,5.5782384540040424e-05,0.10384822709295972
0.19,8.404234736198328e-06,0.0006060363352900295,-0.007392262955142131,-45.43421962407363,51.69037652763788,5.134963027098298,-1658808.6295778048,5104211.023390244,3598076.5286308303,-231.54849880823514,-4938.771627854809,6859.329401132021,0.9945950707318032,-6.170220978865634e-06,5.733069849005974e-05,0.10382987022586
0.195,9.786694760995261e-06,0.0006060930850801911,-0.007402880470310745,-45.441127481584324,51.68140328235784,5.119054811037085,-1658809.7865923874,5104186.32952188,3598110.825740638,-231.2573342271259,-4938.775717930741,6859.514522004911,0.9945969893183436,-6.307695145801535e-06,5.8839667856291974e-05,0.10381148942671625
0.2,5.078969512997854e-06,0.0006118759459044877,-0.007386395627507357,-45.44152791924396,51.67992468582987,5.1259413922839965,-1658810.942151074,5104161.635632977,3598145.1237758556,-230.9661404787513,-4938.7798432467025,6859.699564941903,0.9945989103179862,-6.4417481241472975e-06,6.034913693084581e-05,0.10379308219125219
0.20500000000000002,1.997575626762294e-05,0.0006216505678375176,-0.0073826505122654585,-45.44512795494655,51.67884880620888,5.1299914514645595,-1658812.0962538307,5104136.941723507,3598179.422736342,-230.67496220056728,-4938.783944475974,6859.884629657584,0.9946008266969343,-6.5890049115381154e-06,6.187176374451459e-05,0.10377471591020958
0.21,1.4171908411908777e-05,0.0006173260325394793,-0.007394920611823863,-45.44181548995208,51.66184321804911,5.137625237705263,-1658813.248900688,5104112.247793579,3598213.722622184,-230.38378069411834,-4938.788027107339,6860.069707099347,0.9946027417616494,-6.701756122859761e-06,6.342255999081067e-05,0.10375635890332317
0.215,-2.5947779174899962e-06,0.000576240371814979,-0.007360970502555817,-45.446397122720406,51.65213863254221,5.1259422732413515,-1658814.4000917913,5104087.553843373,3598248.023433323,-230.0926605891073,-4938.792054866317,6860.2547486012745,0.9946046596679454,-6.8278188397650075e-06,6.496109755777265e-05,0.10373797135209059
0.22,2.0863040291823185e-05,0.0005982268080999908,-0.007382208141304969,-45.44316842478074,51.65629566991113,5.125467642109284,-1658815.549827264,5104062.859872975,3598282.3251695023,-229.80152847272777,-4938.796104318348,6860.439723020518,0.9946065684352426,-6.984911243877494e-06,6.639312735293847e-05,0.10371966818610004
0.225,-8.426603733140565e-07,0.0006094633490346641,-0.007383190126386445,-45.45276845785395,51.6536205301755,5.127121439280207,-1658816.698107106,5104038.165882267,3598316.627830621,-229.51040828599258,-4938.800179040767,6860.6247245203685,0.9946084823662604,-7.08937998520025e-06,6.788590898221691e-05,0.1037013121726446
0.23,8.665586005416407e-06,0.0006233579585226982,-0.007387519658492812,-45.457042754430844,51.637451560357924,5.127173095333113,-1658817.8449312712,5104013.4718712475,3598350.931416733,-229.21925786680708,-4938.804228583621,6860.80972042796,0.9946103962084863,-7.250733685835095e-06,6.940100319402346e-05,0.10368295368538459
0.23500000000000001,1.137935492953711e-06,0.0006019430966968883,-0.007382693566689541,-45.447392959670815,51.6374843059969,5.124950075589777,-1658818.990299725,5103988.777840078,3598385.2359276745,-228.92812363059247,-4938.808239443916,6860.994656080535,0.9946123108292986,-7.392047218801137e-06,7.09531112188161e-05,0.10366458439513741
0.24,-5.270512407573652e-06,0.0005769260527503287,-0.00738917470547278,-45.46134544092479,51.615827810365076,5.1131261144083995,-1658820.1342126224,5103964.083788764,3598419.5413633217,-228.63703539088618,-4938.812286257968,6861.179602750253,0.9946142238616619,-7.546527720965309e-06,7.245001971852488e-05,0.10364622707126724
0.245,1.3778692691256586e-05,0.0006216436552553311,-0.007380072549374048,-45.460804022998396,51.61670003299169,5.11564751584688,-1658821.276669998,5103939.389717276,3598453.8477233923,-228.34591481602877,-4938.816308729121,6861.364425428335,0.9946161382365246,-7.7104619224815e-06,7.388306177311634e-05,0.10362785359788435
0.25,3.293464205006873e-05,0.0005908914549821594,-0.007367192386759523,-45.45595029301485,51.60483870848304,5.122004671407557,-1658822.417671795,5103914.695625675,3598488.155007626,-228.05480400188253,-4938.8203316524305,6861.5492679743875,0.994618049904172,-7.83861279600021e-06,7.54322311711879e-05,0.103609502717447
0.255,-1.3246193360971269e-05,0.0006077974861769035,-0.007374118389408375,-45.45703723386053,51.59686271513989,5.116757004346947,-1658823.5572181812,5103890.001514046,3598522.4632160286,-227.76375042657256,-4938.824319647381,6861.734093176595,0.994619957901449,-7.911163554958028e-06,7.690989590816672e-05,0.10359118382565854
0.26,-6.440191019061208e-06,0.0006247616553176924,-0.007393684754205563,-45.46243482878842,51.59215395723443,5.128816996798083,-1658824.695309321,5103865.30738246,3598556.77234846,-227.4727055229974,-4938.828315081485,6861.918879249037,0.9946218673482922,-8.102924883791742e-06,7.841763835343731e-05,0.10357284768515757
0.265,-6.579143484682527e-07,0.0005912229556845886,-0.007367212683395419,-45.45886972069976,51.58642046468363,5.105717277295201,-1658825.8319452503,5103840.613231052,3598591.082404868,-227.18166621163826,-4938.832248349527,6862.103684148874,0.9946237815170154,-8.28215911709083e-06,7.996932500201596e-05,0.10355446285460317
0.27,8.29001953887034e-06,0.0006021079307037456,-0.007393148702307062,-45.46547595487989,51.57441102707713,5.120728372293613,-1658826.9671259895,5103815.919059745,3598625.3933851114,-226.89062943161122,-4938.836274175409,6862.288413097434,0.9946256884983963,-8.438327375380253e-06,8.14391131520517e-05,0.10353614381247105
0.275,-1.4205681645115768e-05,0.000602829133628752,-0.007378728929072973,-45.46918831903932,51.56519281005988,5.116960086327735,-1658828.100851588,5103791.2248685425,3598659.7052889904,-226.59960992988576,-4938.84020703068,6862.473138469694,0.994627601850234,-8.575068769890187e-06,8.29382830028932e-05,0.10351776024123464
0.28,-8.012541530588464e-06,0.0006036353149096212,-0.007386215211589122,-45.46703869845393,51.55409476980688,5.1197829699892585,-1658829.2331220915,5103766.530657691,3598694.0181163903,-226.30859151786137,-4938.8441332877455,6862.6578215909585,0.9946295111283071,-8.76793092815235e-06,8.443342469373014e-05,0.10349941249487898
0.28500000000000003,4.858702072278071e-07,0.0006000957779330891,-0.007358083198586123,-45.463870135291316,51.54617097604022,5.123363281036984,-1658830.363937601,5103741.836427271,3598728.33186714,-226.0176122852866,-4938.848034754859,6862.842478236098,0.9946314220023461,-8.945603562038075e-06,8.59321732866636e-05,0.10348104609651398
0.29,7.517134021197799e-07,0.0005965511057317217,-0.007376830165801807,-45.46620068909735,51.55288565170324,5.106765716505329,-1658831.4932983117,5103717.14217739,3598762.646541146,-225.72667197735768,-4938.851917794248,6863.0271242792705,0.9946333252594017,-9.101222493413299e-06,8.742431970395704e-05,0.1034627496134779
0.295,5.441161936720998e-06,0.0006213287619486356,-0.007359018861425485,-45.47490699901097,51.532990231716795,5.12361365382081,-1658832.621204225,5103692.447907886,3598796.962138352,-225.43569339639137,-4938.8558840176165,6863.211757961181,0.9946352330266184,-9.255267623960062e-06,8.890772030426722e-05,0.10344440647923767
0.3,-5.166524330030531e-06,0.0005914073868355376,-0.007354938961559607,-45.469778664896225,51.5220929500325,5.118352387595929,-1658833.7476553072,5103667.753618856,3598831.278658645,-225.14473942841641,-4938.859727690327,6863.396359440972,0.9946371358424609,-9.404055840440975e-06,9.045394585403876e-05,0.10342610759742152
0.305,6.366626737496492e-06,0.0005861596340069278,-0.007391140860249157,-45.47040420220338,51.52153772140645,5.1105026224268455,-1658834.8726517237,5103643.059310574,3598865.5961018316,-224.8538272330364,-4938.863584971173,6863.580915191594,0.9946390372711447,-9.571483499423443e-06,9.192302641256646e-05,0.10340781882853231
0.31,-5.865566549316445e-06,0.0005998170361463744,-0.007407914151838688,-45.48269370897039,51.508611537312305,5.1163971633441445,-1658835.996193564,5103618.364982917,3598899.914467757,-224.56290885747063,-4938.867477867621,6863.765454991445,0.9946409477201121,-9.70888452223497e-06,9.338203856883486e-05,0.10338944000220594
0.315,1.1961460884304356e-05,0.0005910288028781636,-0.007357576423140253,-45.477278460592565,51.49646491427254,5.102587752743833,-1658837.118280767,5103593.670635973,3598934.233756288,-224.2719723025668,-4938.871299945059,6863.949957194632,0.994642862158488,-9.88023613621763e-06,9.487184911529852e-05,0.10337101943428922
0.32,2.8142523984659043e-06,0.0005812107105273293,-0.007340279257231833,-45.4738159573096,51.48922286466536,5.113453145451102,-1658838.238913373,5103568.976269805,3598968.5539671434,-223.98107014058968,-4938.875167139984,6864.1343849742,0.9946447632496935,-1.0004975872175406e-05,9.63444149838769e-05,0.10335272399707436
0.325,-1.4216903565012681e-05,0.0006245297832985576,-0.007362866039132069,-45.478236296180384,51.485142465611354,5.106030869728763,-1658839.358091589,5103544.281884414,3599002.8751001693,-223.69021628019763,-4938.878989302622,6864.318825501925,0.9946466595358907,-1.0149920179594379e-05,9.779020399473474e-05,0.10333447153853902
0.33,2.721908293986541e-06,0.0005978736812953599,-0.007374206199506707,-45.477617879673296,51.47721772846723,5.111029948937405,-1658840.4758154952,5103519.587479867,3599037.1971553173,-223.39934621210563,-4938.882829508598,6864.503233722648,0.9946485613078075,-1.0348410845175448e-05,9.933931056300834e-05,0.10331616288326025
0.335,3.2677378383050495e-06,0.0006070748519535585,-0.007361479767595493,-45.47591731117426,51.458666471164015,5.099946514878368,-1658841.5920851245,5103494.893056192,3599071.5201324844,-223.10850544541958,-4938.886640392882,6864.687633107408,0.9946504656759833,-1.049789889597439e-05,0.00010082650830280524,0.10329782599047758
0.34,2.0004278453359198e-07,0.0006150342726879489,-0.007380469024951311,-45.47428682563068,51.45889006729753,5.104647729816096,-1658842.706900632,5103470.198613433,3599105.8440314084,-222.81769757979734,-4938.890463314228,6864.871936504509,0.9946523664155983,-1.0648402613574328e-05,0.00010233672717137852,0.1032795207079129
0.34500000000000003,-1.4191838675332875e-05,0.0006208634144155177,-0.007340452268595648,-45.475482905868404,51.44259065379982,5.111587357724101,-1658843.8202621466,5103445.504151578,3599140.16885191,-222.52690830557418,-4938.894278781715,6865.056264145265,0.9946542717160225,-1.080859452403592e-05,0.0001038659455659326,0.10326116817133502
0.35000000000000003,2.463075816790226e-05,0.0005973330346959437,-0.007354201829885508,-45.48136880723375,51.42900853037105,5.096850147148474,-1658844.9321698125,5103420.809670795,3599174.494593953,-222.23615796841497,-4938.898034412229,6865.240552877373,0.9946561663449321,-1.1006068215755572e-05,0.00010540594465195175,0.10324291511021953
0.355,4.291277539549964e-06,0.0006003194681607291,-0.0073633626795083194,-45.47958911055525,51.42325725823529,5.108083101451528,-1658846.0426236894,5103396.115171178,3599208.8212572075,-221.9453927996498,-4938.901812171766,6865.424749071352,0.9946580641920706,-1.1100934326104412e-05,0.00010689745212580819,0.10322462781423289
0.36,-7.661859887951394e-06,0.0006060224160011423,-0.007366141059986519,-45.48062245114279,51.407727971701775,5.095930869917134,-1658847.1516238367,5103371.420652789,3599243.1488414896,-221.65466614507196,-4938.905543359391,6865.608963657362,0.9946599640630382,-1.1247150635628385e-05,0.00010839113667103786,0.10320631770864892
0.365,1.160737208465137e-05,0.0006088113839048544,-0.007377498269281916,-45.46835250760947,51.40587085568736,5.113217454217361,-1658848.259170385,5103346.726115701,3599277.4773466215,-221.3639532489037,-4938.909292046919,6865.793089185122,0.9946618643095415,-1.1424562412919761e-05,0.00010989591823764155,0.10318800066206264
0.37,1.3979002736075671e-05,0.0006175402714173973,-0.007384227997031402,-45.48230591810231,51.39737342471938,5.10367004395852,-1658849.3652635845,5103322.031559968,3599311.8067725315,-221.0733264874944,-4938.913000834944,6865.977274747034,0.9946637671455185,-1.1554780851144517e-05,0.00011141260552612698,0.10316965533335964
0.375,1.0681219540744465e-05,0.0006029589621069349,-0.007352496707118804,-45.48093698486709,51.38678305540089,5.102761204424099,-1658850.4699035161,5103297.336985701,3599346.1371192085,-220.7826461884913,-4938.916706320811,6866.16139610106,0.9946656713738882,-1.1681355112941452e-05,0.00011295161005314667,0.10315129323383301
0.38,-3.451512413937445e-06,0.0006215264736594393,-0.007376535211232972,-45.479671399210645,51.38388759460192,5.096321081995248,-1658851.5730901212,5103272.6423929315,3599380.4683864038,-220.49199583366757,-4938.920401212025,6866.34548195294,0.9946675670836324,-1.1812360687549831e-05,0.0001144535062221966,0.10313301000548271
0.385,-8.39129618469726e-06,0.0005923399048001542,-0.0073691599022951285,-45.477040668573366,51.366170349703964,5.093091693763392,-1658852.6748234953,5103247.947781617,3599414.800573978,-220.2013538217171,-4938.9241246671,6866.529547917634,0.9946694686460543,-1.1983303870032745e-05,0.0001159979290181956,0.10311466696962555
0.39,-4.8359848972357146e-06,0.0006070620113535444,-0.007356087892387188,-45.47181165706361,51.36432928766527,5.0951211807125025,-1658853.7751037735,5103223.253151723,3599449.133681708,-219.910757390947,-4938.927832987027,6866.713544030286,0.9946713679753125,-1.2159004631526211e-05,0.00011746850111272833,0.10309634224079177
0.395,-2.2696829792607752e-05,0.0006064366837996204,-0.007355222073911047,-45.46861705093636,51.34308129343745,5.1053775654714055,-1658854.873931157,5103198.558503273,3599483.4677094473,-219.6201959814169,-4938.931547098269,6866.897551580753,0.9946732635919313,-1.2329655122486079e-05,0.00011897659905818889,0.10307804998119033
0.4,-1.7704062448955395e-05,0.0005931159350917817,-0.0073761961029028,-45.47646625058018,51.335644020850246,5.100976220101825,-1658855.9713059128,5103173.86383644,3599517.8026571088,-219.3297063658574,-4938.935185993193,6867.081513103983,0.9946751586464191,-1.2544558470061627e-05,0.00012047853934567651,0.10305975984484268
0.405,-5.358846235684104e-06,0.0006038713762327955,-0.007352768820735521,-45.46861502454827,51.330222701924285,5.101374833630251,-1658857.0672281666,5103149.169151435,3599552.1385244774,-219.03919515458398,-4938.938816301756,6867.265434253353,0.9946770587695019,-1.2743620593624797e-05,0.00012194864077318925,0.1030414175163668
0.41000000000000003,2.1575027003582986e-05,0.0006061224801674147,-0.007353256582744214,-45.474529157193686,51.316415450620944,5.093598881289179,-1658858.1616979921,5103124.474448253,3599586.475311438,-218.74873512908766,-4938.942456056178,6867.449349979375,0.9946789525153509,-1.2914747451900042e-05,0.0001234486685533066,0.10302313340507578
0.41500000000000004,1.4838917131103686e-05,0.0006075125020035702,-0.007365197725691037,-45.479957936393404,51.30029566191463,5.0917085990933,-1658859.2547155037,5103099.779726889,3599620.813017792,-218.45826943838665,-4938.946089927243,6867.63319170115,0.9946808460486052,-1.3019477853719735e-05,0.00012496123111997557,0.10300484803743402
0.42,8.639421945816743e-06,0.0005826206575465882,-0.007359606774706086,-45.46501272400028,51.294443145464825,5.096202226109728,-1658860.3462807073,5103075.084987437,3599655.1516431887,-218.16781201648286,-4938.949690395622,6867.816966924788,0.9946827423172152,-1.3141320627687327e-05,0.00012647551519569573,0.10298653294268269
0.425,2.863604603755286e-05,0.0006011409588557166,-0.007365683150603509,-45.47903212901811,51.28356696503356,5.094417557340589,-1658861.4363938463,5103050.390229967,3599689.4911874873,-217.8774435792982,-4938.953297718677,6868.00075245693,0.9946846368148274,-1.327216914465966e-05,0.00012792630453042054,0.10296823171864745
0.43,3.937706558155737e-06,0.0006002297517248152,-0.007380303663817467,-45.46678381805071,51.26761051804411,5.086189681791254,-1658862.525055044,5103025.695454559,3599723.8316505826,-217.5870355248606,-4938.956865567357,6868.1844857547585,0.9946865325321805,-1.3358061270202441e-05,0.00012942829581041415,0.10294991534229632
0.435,-1.6057130566688716e-05,0.0005788966443557877,-0.0073486619410385945,-45.46933820790506,51.260952914080775,5.083312926457352,-1658863.612264399,5103001.000661241,3599758.1730321734,-217.29670645658268,-4938.960461751938,6868.368150505544,0.9946884316717578,-1.350514136432095e-05,0.00013092166391433777,0.10293156258168791
0.44,1.1050418985131408e-05,0.0006044904056433105,-0.007352570678731773,-45.465509586248565,51.25006158043227,5.087634305241985,-1658864.6980221153,5102976.305849946,3599792.5153320166,-217.00638003861383,-4938.964056016159,6868.551786842689,0.9946903223359765,-1.3696443055137873e-05,0.00013235683830456458,0.10291328847736826
0.445,-4.4525745098120955e-06,0.0005988830402693764,-0.007357999397853315,-45.47307104963933,51.238957681772014,5.084722540498285,-1658865.7823283197,5102951.611020748,3599826.8585499916,-216.71610173939195,-4938.967623447047,6868.735403065712,0.9946922136602243,-1.3826921837002351e-05,0.00013386263150029268,0.10289500460826476
0.45,-4.637565247099045e-06,0.0005996992815532295,-0.007340166460758768,-45.47320067990039,51.22387676489833,5.078643159415577,-1658866.8651831034,5102926.916173768,3599861.20268592,-216.4258116946985,-4938.971168583328,6868.918968466642,0.9946941060437001,-1.3994511773502916e-05,0.00013535049250463973,0.10287670720975729
0.455,1.324820338093323e-07,0.000611613220025749,-0.007345541954885348,-45.46109768306471,51.218471217743314,5.091406837259995,-1658867.9465864983,5102902.221309071,3599895.5477395025,-216.13554634437745,-4938.974710135663,6869.102464345317,0.9946959935024099,-1.4162765624537458e-05,0.00013684033628479325,0.10285845412211972
0.46,-3.16938344915268e-05,0.0005968625452184194,-0.007349091162236579,-45.46293760766269,51.20763363806633,5.081052085503903,-1658869.0265387818,5102877.526426743,3599929.893710646,-215.84536700524168,-4938.9782211024985,6869.285992993628,0.9946978820020225,-1.432222306566172e-05,0.00013836103329457604,0.10284018763007478
0.465,1.2137004355070052e-05,0.0005998513795454901,-0.0073536772817876985,-45.46639103539499,51.19704353787744,5.096833170867991,-1658870.105040178,5102852.831526811,3599964.240599268,-215.55519149461867,-4938.981751488897,6869.4694559262125,0.9946997710802222,-1.4557033248283395e-05,0.0001398368664069016,0.10282191228866144
0.47000000000000003,-1.7306992318121827e-06,0.0005897943082925958,-0.007331445807137614,-45.44935434808995,51.17809444459092,5.079529881715449,-1658871.1820907707,5102828.136609443,3599998.588405222,-215.2650456299946,-4938.985195569313,6869.652925835954,0.9947016609996491,-1.468361700996737e-05,0.00014133139871350012,0.10280362549232594
0.47500000000000003,1.4930094678407962e-05,0.000601643988932022,-0.007344323805351877,-45.465219364879914,51.16526430901528,5.091143685585764,-1658872.2576908697,5102803.441674688,3600032.937128271,-214.97499395587894,-4938.988706747481,6869.836293683754,0.9947035448710566,-1.4842093722673056e-05,0.00014279735819904655,0.10278539395060335
0.48,-9.140461463137194e-07,0.0005963587554281258,-0.007352230811100832,-45.45420406033535,51.16033343760382,5.0709767346216506,-1658873.3318406423,5102778.746722627,3600067.2867680984,-214.68491506956448,-4938.992117339826,6870.019637247229,0.9947054317110738,-1.4962188586037703e-05,0.0001442970656723853,0.10276713034319881
0.485,1.780974364854235e-05,0.000614023710115938,-0.007338994990045824,-45.46303197065925,51.146728316224106,5.0751557707516595,-1658874.4045401155,5102754.0517532695,3600101.637324498,-214.39487424066965,-4938.995625968507,6870.202922508039,0.9947073202459287,-1.5120329058359809e-05,0.00014577955903253908,0.10274884704394108
0.49,6.582432621035249e-06,0.0005728428630465604,-0.007344435203651583,-45.446470668379426,51.139094857860506,5.066528972657302,-1658875.4757893751,5102729.3567665145,3600135.988797218,-214.10482959625836,-4938.999076035794,6870.386165540026,0.9947092050374086,-1.5236440609155136e-05,0.00014731079111240323,0.10273059661672582
0.495,-8.31334569400791e-06,0.0006164456386309937,-0.007334837376467532,-45.452822359032645,51.125629526226334,5.070448597628807,-1658876.5455886181,5102704.661762365,3600170.3411860727,-213.81486755280392,-4939.002583855518,6870.569376264139,0.9947110909035269,-1.536989759988425e-05,0.0001487367320450702,0.10271233263180314
0.5,1.5561738068907437e-06,0.0006346804076312132,-0.007355553363522434,-45.450234420237,51.10804166435139,5.079605989019461,-1658877.6139380673,5102679.966740807,3600204.69449088,-213.52491217551432,-4939.006039550508,6870.752546676458,0.9947129739512114,-1.555158986324814e-05,0.00015026727875694514,0.10269409248359737
0.505,-1.8994411554933238e-05,0.0006043753343640077,-0.007327333127750554,-45.44376320905713,51.09679787915657,5.0808523919539725,-1658878.680837892,5102655.271702128,3600239.048711452,-213.23501770525493,-4939.009431401735,6870.93568226741,0.9947148619731022,-1.5713428063566998e-05,0.00015184570436898768,0.10267580077994248
0.51,2.364019484770936e-05,0.0006065253178899198,-0.007328576898031416,-45.44216513025633,51.08266682970762,5.079918876650559,-1658879.746288386,5102630.576646518,3600273.403847633,-212.9451798810265,-4939.0128130837775,6871.118789983253,0.9947167424243872,-1.591858148328971e-05,0.00015334349365166096,0.10265757922816575
0.515,-1.998078118596429e-05,0.0006145021877278751,-0.007303425864256727,-45.44641339580362,51.07542400614037,5.068401196287933,-1658880.8102897839,5102605.881574043,3600307.7598992274,-212.65537928761282,-4939.016176576715,6871.301847823624,0.9947186228596238,-1.6018263762723293e-05,0.00015485757130825268,0.102639354532272
0.52,4.044316565227502e-06,0.0005985024446383018,-0.00733454221240879,-45.44304019964411,51.059539541524195,5.067004257276956,-1658881.8728421414,5102581.186484684,3600342.11686597,-212.36556367027177,-4939.019567284606,6871.484849228022,0.9947204965012318,-1.6228459644630294e-05,0.00015638029370025977,0.10262119236387571
0.525,-3.574290289882561e-07,0.0005866878088623794,-0.007338231576586494,-45.44107388243059,51.04763879811462,5.068456819676934,-1658882.93394554,5102556.491378413,3600376.4747475777,-212.07579580310895,-4939.022941233265,6871.667793823333,0.9947223777977421,-1.637481726133764e-05,0.00015786939030659587,0.10260295277196925
0.53,-1.2764295590248237e-05,0.0006037472248218359,-0.0073153071865890784,-45.44427508499413,51.03769922193581,5.065305678898023,-1658883.993600194,5102531.796255326,3600410.8335438236,-211.78606582412104,-4939.026293428841,6871.850704591155,0.994724259708285,-1.6529092074415428e-05,0.0001593279769217314,0.10258470397281093
0.535,3.8802442626885255e-06,0.0005846854852755371,-0.007314996623939034,-45.435991475713244,51.01748972405082,5.064850712957867,-1658885.0518062115,5102507.101115502,3600445.1932545155,-211.49634111811682,-4939.029635893641,6872.033572241921,0.9947261353963468,-1.6718586366394982e-05,0.00016082580608079932,0.1025665121518613
0.54,9.46035575221169e-06,0.0006032735707089815,-0.007331584920283795,-45.425844463304266,51.01332822860221,5.070130997298404,-1658886.1085638022,5102482.405959018,3600479.553879377,-211.2066952113896,-4939.032958095472,6872.21637232121,0.9947280106782558,-1.6861800890521677e-05,0.00016228050010342314,0.10254832106279865
0.545,9.691245841647198e-06,0.0005978597097039879,-0.007327396416190596,-45.42644493073654,50.984997124917,5.067402091630599,-1658887.163873327,5102457.710785927,3600513.915418277,-210.91711465441185,-4939.036277971116,6872.399187556375,0.994729889869995,-1.699591084823305e-05,0.00016378284917279465,0.10253008868398145
0.55,6.5741721545163454e-06,0.0006207364254286037,-0.007313019033895215,-45.42927946503418,50.98643079660639,5.061866150041892,-1658888.2177350759,5102433.015596358,3600548.2778709666,-210.627584951712,-4939.039549682208,6872.581888424002,0.994731767654109,-1.712805719287942e-05,0.00016527179422432502,0.10251186668671869
0.555,1.0750468313163916e-05,0.0005846353558415275,-0.007321155227168636,-45.42295271493152,50.97503976716763,5.060131276622244,-1658889.2701491346,5102408.320390364,3600582.6412371527,-210.33803844108436,-4939.042847800473,6872.764585965788,0.9947336414085522,-1.727381205893854e-05,0.00016681683148283083,0.10249368040929135
0.56,-1.0147192526099115e-06,0.0005883335396684453,-0.007313009587643948,-45.41897527572465,50.958216630119004,5.069008740198765,-1658890.3211155913,5102383.625167878,3600617.005516734,-210.0485443094725,-4939.046146804722,6872.947246498914,0.9947355169278804,-1.7399934227877754e-05,0.0001682731610726707,0.1024754738637887
0.5650000000000001,1.548806692807554e-05,0.0006035191255993066,-0.007331671579211181,-45.41993680585855,50.94553373771019,5.063526915877082,-1658891.370634741,5102358.929929042,3600651.3707095394,-209.75911549580738,-4939.049387636546,6873.129875655951,0.9947373900233201,-1.7556258521916472e-05,0.00016973567363924846,0.10245728754545592
0.5700000000000001,-5.2220678070547905e-06,0.0005762663947779821,-0.007295682060842095,-45.424850741758284,50.92685559322213,5.054725510066179,-1658892.4187067894,5102334.234674008,3600685.736815343,-209.46970393530978,-4939.052626212199,6873.312445901555,0.9947392675576324,-1.767544056777335e-05,0.00017124017658154053,0.10243905477544049
0.5750000000000001,-2.2203704838125498e-05,0.0005849341359705623,-0.0073379231675044345,-45.4100429653338,50.9213790833874,5.059550373016618,-1658893.4653317956,5102309.539402807,3600720.1038337587,-209.18029857125828,-4939.055853757842,6873.4949203287915,0.9947411355511457,-1.783913080122944e-05,0.0001726716038362367,0.10242091148149338
0.58,1.8815968482146854e-05,0.000578833286072484,-0.007314585483020483,-45.4116952739987,50.91434824333661,5.056356245428761,-1658894.510509995,5102284.844115455,3600754.4717645776,-208.89098120282776,-4939.059087326701,6873.677407182709,0.9947430140211533,-1.80472894904191e-05,0.0001741202363588628,0.1024026631125883
0.585,-1.034666354990769e-05,0.0005892392911547179,-0.007321953529995764,-45.41132697994973,50.88256140674399,5.056154532115759,-1658895.554241625,5102260.148811934,3600788.8406077554,-208.60167066870835,-4939.062321182354,6873.85986388608,0.9947448861852571,-1.8151866072740044e-05,0.00017556419924059542,0.10238447272902976
0.59,-1.2224923586544207e-05,0.0005910464480196754,-0.007326790233988938,-45.402665633707656,50.88012716334612,5.05500125164109,-1658896.5965268633,5102235.453492403,3600823.210362915,-208.3124247707472,-4939.065490962371,6874.042200038031,0.9947467598943095,-1.8331632863908507e-05,0.00017702657552791997,0.10236626399999141
0.595,2.2378131462969086e-05,0.0005863325548519083,-0.00731008798699764,-45.39289096828449,50.85703746785332,5.059131190302465,-1658897.6373659908,5102210.758156964,3600857.581029763,-208.0232261679695,-4939.068684670086,6874.2245390875905,0.9947486345045693,-1.851653525191899e-05,0.00017849296501627374,0.10234804320891713
0.6,9.191473773645348e-06,0.0006075670009399692,-0.007293502122353732,-45.40426902862847,50.8474254120445,5.050919984738906,-1658898.6767593664,5102186.062805661,3600891.952608143,-207.73412410000248,-4939.071836497509,6874.406812922117,0.9947505045097822,-1.8614170681856007e-05,0.0001799564862581137,0.1023298639044808
0.605,5.595417421262578e-06,0.0005968558380995831,-0.007311333797153557,-45.39614114450705,50.832707838568965,5.0458870348802565,-1658899.7147071355,5102161.367438613,3600926.325097735,-207.44498353295268,-4939.074982402061,6874.5890238946595,0.9947523699280596,-1.8750024524634963e-05,0.00018146944217909547,0.10231172581765478
0.61,-1.3908425800988826e-05,0.0005875914609870397,-0.007308129392111283,-45.38955779614676,50.82064243676006,5.0454757613186665,-1658900.7512093573,5102136.672055813,3600960.698498236,-207.15590516582563,-4939.078138242359,6874.771176600255,0.9947542395782115,-1.8892089720936912e-05,0.0001829548400199462,0.10229354335337962
0.615,4.588373485207836e-06,0.0005869876171637538,-0.007292233215013452,-45.39806366033332,50.808275402328,5.040164624082413,-1658901.786266328,5102111.976657244,3600995.072809411,-206.86688320115667,-4939.081288726103,6874.953293431981,0.994756108077824,-1.9080288057159885e-05,0.00018441221071153924,0.10227536883306616
0.62,1.570299369087078e-05,0.0006149681777648252,-0.007318555777927428,-45.37882222789188,50.78674403589224,5.041665246744749,-1658902.819878147,5102087.281242969,3601029.4480310115,-206.57784429294094,-4939.084421485421,6875.135346728241,0.994757972180651,-1.922232515232163e-05,0.00018587280982366384,0.10225723380201573
0.625,2.7218773692546986e-05,0.0005996580128160095,-0.007301365147467491,-45.379038476916094,50.77608956562514,5.034412091552435,-1658903.8520451027,5102062.585813051,3601063.824162733,-206.28893808271175,-4939.0875456832855,6875.317341708128,0.994759842666136,-1.9343886616820696e-05,0.0001874058336985154,0.10223903326866807
0.63,-2.949006354036914e-06,0.0006199999731296725,-0.007247972751510178,-45.377916983703095,50.763676349253615,5.043159791076177,-1658904.8827675642,5102037.890367486,3601098.201204291,-206.00004648760412,-4939.09068072054,6875.499281699779,0.9947617084309486,-1.9432888190840015e-05,0.0001889037269040299,0.10222087544765653
0.635,5.186331750305777e-06,0.0005813628096479443,-0.007321290613724484,-45.37759319240163,50.752935736410755,5.034259946390884,-1658905.9120456784,5102013.194906378,3601132.579155509,-205.71119919451147,-4939.093762233359,6875.681205411059,0.9947635602088032,-1.9602087356855324e-05,0.0001904445017063122,0.10220285038763285
0.64,4.957880574109741e-06,0.000579951127903351,-0.007278887113635781,-45.373458381525325,50.7299554706137,5.048680299350103,-1658906.9398795937,5101988.499429817,3601166.9580161963,-205.42236691709542,-4939.096861927171,6875.863069544399,0.9947654304065092,-1.9741217508448213e-05,0.00019189126438314978,0.10218464295665686
0.645,1.7438771849886487e-05,0.0006078354474045571,-0.0073024824524905605,-45.362847666580514,50.717959155971926,5.034763344583761,-1658907.9662695583,5101963.803937993,3601201.3377861027,-205.13361886416538,-4939.099867792595,6876.044892902938,0.9947672894389887,-1.9880534819115138e-05,0.00019333445999741183,0.10216654094544982
0.65,8.993275856871305e-06,0.0006013235970529346,-0.007297731308432235,-45.35660870376539,50.69196898047092,5.031743592408765,-1658908.9912159247,5101939.108430999,3601235.7184649506,-204.84492775303002,-4939.102929930221,6876.226646224633,0.9947691541525756,-1.9995946682828247e-05,0.0001948501882203384,0.10214838021297966
0.655,8.600315023108876e-06,0.0005871504660881849,-0.007272813342892824,-45.35668886415002,50.68642981083596,5.034157560768839,-1658910.0147190276,5101914.412908764,3601270.100052315,-204.55631336871613,-4939.105964349345,6876.408299554805,0.9947710173220046,-2.0130696585279932e-05,0.00019634756541142564,0.10213023126642164
0.66,1.1329504452844932e-05,0.0005997951973312222,-0.007286172900706477,-45.36456687061138,50.67144025461631,5.027276123482508,-1658911.0367791043,5101889.717371394,3601304.482547928,-204.26771729307148,-4939.108983480208,6876.589945758515,0.9947728738039943,-2.0262792751818438e-05,0.0001978095959082662,0.1021121442558404
0.665,-1.599828452206119e-05,0.000619649923077219,-0.007284099164846631,-45.35407664847217,50.64716026358191,5.020819079668892,-1658912.0573961718,5101865.021818969,3601338.865951577,-203.97910976706075,-4939.111986285126,6876.771513889926,0.9947747333586482,-2.039133616074623e-05,0.00019930376895995524,0.10209402398491088
0.67,-7.272923163420367e-06,0.0006018690923899094,-0.00726348474152688,-45.3389650665277,50.631464216309446,5.023729335907905,-1658913.0765704224,5101840.326251535,3601373.250262819,-203.69059047067637,-4939.114987555809,6876.952982899342,0.9947765920404386,-2.0592908636695773e-05,0.0002008403444897006,0.10207590884973285
0.675,-3.5111340469147996e-06,0.0005904612624060179,-0.007308069286664544,-45.342821514715055,50.63288513224016,5.02902640750211,-1658914.09430234,5101815.630669117,3601407.635481321,-203.40217656262487,-4939.117979527174,6877.134417695373,0.9947784451397466,-2.076823380604358e-05,0.00020233492775143346,0.10205784494396146
0.68,1.020265090635709e-05,0.0005948736169376036,-0.007316564835412916,-45.3343861824027,50.610889229696674,5.025442472705876,-1658915.1105921692,5101790.935071786,3601442.021607061,-203.11375509272776,-4939.120953000708,6877.315878448199,0.9947803092882801,-2.0931315507804565e-05,0.0002038020977725261,0.10203967012343189
0.685,1.5860384890708013e-05,0.000589898680010121,-0.007270330153564397,-45.3325005646001,50.59225838758722,5.021895725480377,-1658916.1254400874,5101766.239459616,3601476.408639896,-202.82541218665222,-4939.123914658974,6877.497255654253,0.9947821752678632,-2.1061421610961333e-05,0.00020528373896425012,0.10202147413334828
0.6900000000000001,1.1338475039183571e-05,0.0005878288544647532,-0.007279510759686197,-45.323090857821185,50.58444211281365,5.012732250661925,-1658917.138846399,5101741.543832683,3601510.7965794294,-202.53711245904935,-4939.126858592936,6877.678557589266,0.9947840291250549,-2.1176164570699548e-05,0.00020675445310115232,0.10200339309007361
0.6950000000000001,-2.4463273069736092e-06,0.0005852926283085364,-0.0072843572584203615,-45.316731205790056,50.57083348062911,5.0288317348996925,-1658918.1508113372,5101716.8481909195,3601545.18542537,-202.24886279128194,-4939.12984711165,6877.859818709264,0.9947858849929997,-2.1301630254899693e-05,0.00020821886598433207,0.10198528918348335
0.7000000000000001,-7.252546713138415e-06,0.0006014611374508671,-0.007282032960346079,-45.32270927712665,50.542577742731,5.011453226030399,-1658919.1613352252,5101692.152534398,3601579.5751776258,-201.9606924174108,-4939.132761124396,6878.041083587332,0.9947877417653821,-2.146073412743259e-05,0.0002096734564173739,0.10196717319711354
0.705,1.6893774990907324e-05,0.0005804414816890926,-0.007277191839918222,-45.31235436189539,50.53976529263513,5.020231794137098,-1658920.1704182802,5101667.456863311,3601613.965835807,-201.67252962770655,-4939.135673711759,6878.222188787638,0.9947895976045334,-2.1635911337745627e-05,0.00021116703230036887,0.10194906295882397
0.71,9.710481007296715e-06,0.0005634827550623999,-0.007279656169059486,-45.30821211593602,50.51542309342022,5.010516419608438,-1658921.178060692,5101642.7611776935,3601648.35739959,-201.3844350854977,-4939.138573587247,6878.403324446729,0.9947914518905663,-2.1745677375485282e-05,0.0002126144872747575,0.10193096471467598
0.715,-1.3747177877939975e-05,0.000583258506662123,-0.00727261282190394,-45.30151272454748,50.49335872831956,5.016390202052915,-1658922.1842627702,5101618.065477581,3601682.7498687664,-201.09639620453407,-4939.141471554124,6878.5843462357425,0.9947933064817938,-2.186898786607449e-05,0.0002140179355534245,0.10191286031257668
0.72,7.112280087675898e-06,0.0005915933370172073,-0.007275513402454816,-45.29562811394563,50.48163605115184,5.011938271925399,-1658923.1890248614,5101593.36976311,3601717.143242905,-200.80844030305084,-4939.144316658562,6878.765309123425,0.9947951589354276,-2.20556718945112e-05,0.00021546458951643215,0.10189477340470224
0.725,9.091233909763115e-06,0.0005755913235155887,-0.007282205341269643,-45.28941012464175,50.47099266760793,5.014793949198134,-1658924.1923472916,5101568.674034389,3601751.537521742,-200.52053175255372,-4939.147171611067,6878.946225517219,0.9947970117934818,-2.219260344766049e-05,0.0002169372855443599,0.10187667923750679
0.73,-1.7268316316624052e-05,0.0005968469037343938,-0.007258908304455721,-45.27990509429497,50.44376509873648,5.006227436899207,-1658925.1942303197,5101543.978291433,3601785.9327051067,-200.2326794785994,-4939.150010737783,6879.127120530847,0.9947988660331739,-2.2320541399376942e-05,0.00021837068826378747,0.1018585683933721
0.735,4.247992348967124e-06,0.000593598728496762,-0.007241544220074724,-45.29122023475427,50.43153774663085,5.00775778744707,-1658926.1946743024,5101519.282534286,3601820.328792652,-199.94491356708346,-4939.152847833112,6879.307897658702,0.9948007139964818,-2.2519435409309572e-05,0.00021985024241322627,0.10184051546823503
0.74,-1.5643158722102067e-05,0.0005908081283290912,-0.007265850190822728,-45.28431781101766,50.41901465233735,5.0012898894486275,-1658927.1936794026,5101494.58676308,3601854.725783968,-199.65712650605875,-4939.155634689561,6879.488628529433,0.994802557212836,-2.2663981780390607e-05,0.00022132719732982303,0.10182250568227977
0.745,6.98158029559202e-06,0.000597073340500489,-0.007242325119927795,-45.276239880203235,50.403860050573385,5.008012362675621,-1658928.1912456942,5101469.890977895,3601889.123678801,-199.36939019289866,-4939.158439525584,6879.669304846229,0.9948044062875204,-2.2857300648024344e-05,0.00022279214713841054,0.10180443542467635
0.75,-1.4662139641796146e-05,0.0006075792439527756,-0.007264746286188622,-45.27024904069928,50.38448826263661,5.002951259776723,-1658929.1873734987,5101445.195178779,3601923.522476948,-199.08173158484087,-4939.16120678323,6879.849953807845,0.9948062490432441,-2.299593299588904e-05,0.00022427843811617546,0.10178642362751712
0.755,-1.1726214186467386e-05,0.0006035333670259965,-0.007263412853985715,-45.25629630968293,50.372727233996066,5.008233304949431,-1658930.1820631623,5101420.49936584,3601957.9221781413,-198.79413383137685,-4939.163968901705,6880.030523582667,0.994808097167873,-2.3191079573076666e-05,0.00022578534848458545,0.10176835604639667
0.76,9.35323434943161e-06,0.0006073113222455099,-0.007267354707825166,-45.251433181158596,50.347583791159074,5.001580220965464,-1658931.1753150772,5101395.803539121,3601992.322782152,-198.50663212128944,-4939.1667189338605,6880.211080676567,0.9948099446253411,-2.33778943282266e-05,0.0002272829436382778,0.10175029174633063
0.765,-8.289971576961926e-06,0.0005950597063559914,-0.007260921797820397,-45.258746311452065,50.329081831546375,5.00068833866418,-1658932.167129644,5101371.107698686,3602026.724288678,-198.21919461152132,-4939.169454590083,6880.391529767018,0.9948117927541278,-2.3513247222951878e-05,0.0002287952964547356,0.10173221759677603
0.77,1.4736829232014583e-05,0.0005682264550561736,-0.007255387277558287,-45.24509910796556,50.311720355719444,4.986936439664004,-1658933.1575070359,5101346.411844692,3602061.126697262,-197.9317621199501,-4939.172143355896,6880.57190374052,0.9948136389224647,-2.3689359643470047e-05,0.0002302726922372917,0.1017141594230892
0.775,-2.747463956222907e-05,0.0005923061670133601,-0.007238039768055287,-45.2278880263767,50.29555481816776,4.999380590025509,-1658934.146447466,5101321.7159771295,3602095.530007493,-197.64440999450204,-4939.174881584087,6880.752188796597,0.994815483370612,-2.380137712725435e-05,0.00023168920843961527,0.1016961149685708
0.78,-4.414990936548041e-06,0.0005990376288904304,-0.007272307823640991,-45.22815355931235,50.28690145668533,4.9933923457805225,-1658935.1339514551,5101297.020095985,3602129.9342191303,-197.35718564395015,-4939.177576071914,6880.932466012537,0.9948173230632502,-2.4024488144801855e-05,0.00023315488091740753,0.1016781136474042
0.785,5.393093181858174e-06,0.0006018247973505184,-0.007267178324103719,-45.229989565528534,50.26215871335703,4.9906379586110345,-1658936.120019353,5101272.324201343,3602164.339332044,-197.06997349248297,-4939.180280805507,6881.112699671868,0.9948191711346377,-2.419197988988479e-05,0.00023464315435094005,0.10166002705257728
0.79,1.3539311426802298e-05,0.0005975111652109264,-0.0072577155029679066,-45.229242641994155,50.246031942290536,4.9935181386482475,-1658937.1046512863,5101247.628293283,3602198.745345874,-196.78279977342694,-4939.18294294839,6881.2928322442285,0.9948210175704829,-2.4335783801697967e-05,0.00023614085256345495,0.10164195317533138
0.795,-6.8970233983831034e-06,0.0005904815106979859,-0.007243074469248911,-45.21552793019849,50.235272175594524,4.984358430958406,-1658938.087847455,5101222.932372013,3602233.152260246,-196.4956677091504,-4939.1855653190205,6881.472916625338,0.9948228612746473,-2.445822593124007e-05,0.00023762989303735728,0.10162390279433793
0.8,-7.487738897358838e-06,0.0006019746672726512,-0.007253222154251121,-45.219117654903656,50.21032301970966,4.986838605254699,-1658939.0696081498,5101198.236437514,3602267.5600749175,-196.20861025811064,-4939.1882342726,6881.6529517764275,0.9948247009329954,-2.4629699735212428e-05,0.00023909625912509758,0.10160588880538973
0.805,1.2820215441376415e-05,0.0005799684462458934,-0.0072407050393825355,-45.20810570788761,50.19251309781153,4.97618194750197,-1658940.0499336515,5101173.540489838,3602301.968789542,-195.9215904246929,-4939.190835901096,6881.832898127368,0.9948265428332389,-2.4805568173625116e-05,0.00024059105864865878,0.10158784954457983
0.81,-2.173133283869649e-05,0.0005951862445466494,-0.007240898107419671,-45.197668869895246,50.16785095626076,4.974858544752825,-1658941.0288242374,5101148.844529078,3602336.378403688,-195.63464389655027,-4939.193468312861,6882.012760157502,0.9948283812402957,-2.4925332933444136e-05,0.00024203628554051476,0.10156984137024797
0.8150000000000001,1.658965506185791e-05,0.000574665261847817,-0.0072606055337368,-45.194084996921816,50.160928902127964,4.985385544300189,-1658942.0062803281,5101124.148555213,3602370.7889169273,-195.34779244012472,-4939.196077816821,6882.192535646363,0.9948302193568791,-2.5134894127362197e-05,0.0002435105865964418,0.10155183270219864
0.8200000000000001,9.444422837539704e-07,0.000583080758925973,-0.0072474196969673915,-45.18350790923011,50.13585848017995,4.979033282002156,-1658942.9823022804,5101099.452568407,3602405.2003290765,-195.06098847680911,-4939.1986443219,6882.372324005495,0.9948320621626603,-2.5243950259997974e-05,0.00024494357801553817,0.10153377496466597
0.8250000000000001,-9.88020917084424e-06,0.0005903358406715031,-0.007241450010844362,-45.18864146334462,50.122083995954405,4.968836338751901,-1658943.956890438,5101074.756568779,3602439.612639912,-194.7742745021415,-4939.201207103973,6882.5520102334085,0.9948339012860169,-2.5394045350816575e-05,0.0002463935289077423,0.10151574999681054
0.8300000000000001,9.57634646444329e-07,0.0005997547018577876,-0.0072482457099215785,-45.17073809135554,50.10602732723026,4.968650538183918,-1658944.930045011,5101050.060556323,3602474.025848978,-194.48755473922583,-4939.203774956576,6882.731616281707,0.9948357385607168,-2.5572899844301362e-05,0.00024785877691924145,0.10149773984876088
0.835,-8.109991565623609e-06,0.0005609863083748994,-0.007231585660369085,-45.16692227644377,50.087129915533794,4.973175998727535,-1658945.9017662713,5101025.36453101,3602508.4399559693,-194.20094940228117,-4939.206350465851,6882.911180124523,0.9948375772260866,-2.5727193837184174e-05,0.00024935020000535924,0.1014797127583617
0.84,1.5329743128652664e-05,0.000598840888456869,-0.007224968564221452,-45.16567218176979,50.06594956824495,4.968694651017079,-1658946.8720546612,5101000.668492935,3602542.854960649,-193.91440653415341,-4939.20887962445,6883.090691646012,0.9948394113603893,-2.5894193960760403e-05,0.0002507429029939382,0.10146172707775802
0.845,9.216633052496584e-06,0.000596428515678229,-0.007217413214007473,-45.160256025125456,50.04702326052319,4.975858603759373,-1658947.8409104454,5100975.972442267,3602577.270862663,-193.6279071644985,-4939.2113874535735,6883.270114195847,0.994841243467066,-2.6012494975871536e-05,0.00025223569998879063,0.1014437578040346
0.85,2.908022055286387e-07,0.0005825803300836434,-0.007225535179663688,-45.14751331799591,50.02942754313497,4.961962617778409,-1658948.8083339154,5100951.276379194,3602611.6876616813,-193.34148085219707,-4939.213841705791,6883.449492999014,0.994843073332308,-2.6145383352799006e-05,0.00025372094723022576,0.10142580729196983
0.855,-1.0174048439596289e-05,0.0005874692022210322,-0.00724532015870811,-45.14215365544635,50.01310173758055,4.96625839301663,-1658949.774325445,5100926.580303731,3602646.1053573657,-193.05513099712834,-4939.216343465033,6883.628780667317,0.9948449049387768,-2.6296964966902337e-05,0.000255169488654744,0.10140783655299004
0.86,1.3582333404609992e-05,0.0005824282450685684,-0.007231223869429436,-45.13177604760706,49.99243835587808,4.95554689095982,-1658950.7388853864,5100901.88421585,3602680.5239493847,-192.76884554887377,-4939.218808820166,6883.808027052926,0.9948467412296799,-2.647582587687917e-05,0.000256627534823695,0.10138981657950336
0.865,-1.0050521853271578e-05,0.0005930119670293196,-0.007212059528519996,-45.12500694883718,49.97632600933465,4.96376284714373,-1658951.7020140893,5100877.188115586,3602714.943437394,-192.48263558241143,-4939.221297293414,6883.987176784359,0.9948485736244442,-2.6594315082437283e-05,0.0002580790660295963,0.10137183161681021
0.87,1.0844361040291366e-05,0.0005893966519728027,-0.007204802429508259,-45.113205351185236,49.95407277138215,4.958760430809026,-1658952.6637119306,5100852.4920029985,3602749.363821082,-192.19650098593533,-4939.22373727844,6884.166298246084,0.9948504008275769,-2.6774251923542585e-05,0.00025955093216215513,0.10135389429944305
0.875,7.775593621053078e-06,0.0005887321637246379,-0.007225376987255151,-45.11411677501216,49.941829407352124,4.957084487889022,-1658953.6239793291,5100827.795878213,3602783.785100162,-191.9104584195598,-4939.226177109165,6884.345333709499,0.994852225870355,-2.6901299774722415e-05,0.0002610191013959122,0.10133597498494223
0.88,1.969364198849136e-05,0.000585234228590209,-0.0072265937968244735,-45.11032274919549,49.91770629907724,4.95992424175387,-1658954.582816568,5100803.099741269,3602818.2072743024,-191.62443709005748,-4939.228600514638,6884.524322507374,0.9948540557998742,-2.7035825126801924e-05,0.00026248483905009416,0.10131800446768666
0.885,-1.79935643921688e-05,0.0005925665607642435,-0.007230303832189943,-45.09767538826155,49.901622213331805,4.944010424219696,-1658955.5402238742,5100778.403592337,3602852.6303431913,-191.33848533723003,-4939.230972133109,6884.703232979986,0.9948558857138988,-2.7139823462155904e-05,0.00026394489548059723,0.10130003088319418
0.89,-3.664209872205566e-06,0.0006012870701345938,-0.007218089041783975,-45.08739418959542,49.87882032766109,4.956443220637985,-1658956.496201598,5100753.707431401,3602887.054306405,-191.05260427129815,-4939.233402460708,6884.88205271114,0.9948577162330505,-2.73394144979303e-05,0.00026541364381926075,0.10128204806239538
0.895,-1.962388840819758e-05,0.0005902125944086411,-0.0072214592738953556,-45.08239565039091,49.86417087780577,4.956570791723062,-1658957.4507501882,5100729.011258496,3602921.4791636164,-190.76683177372712,-4939.2357595507865,6885.060831702624,0.9948595433278268,-2.75055663252558e-05,0.0002669077103366284,0.10126409557817678
0.9,-2.335099502540917e-06,0.0005864434644371975,-0.007221292779996054,-45.073562636183404,49.84593913323485,4.947224032014612,-1658958.4038700517,5100704.315073848,3602955.9049146064,-190.4811136549551,-4939.238099720793,6885.239564235848,0.9948613709557882,-2.7708610871699568e-05,0.00026837019230901635,0.10124613468988529
0.905,-4.454218244155243e-06,0.0005991626678090536,-0.007193179903152898,-45.05544593644932,49.819621526543855,4.944666474579956,-1658959.3555614895,5100679.618877448,3602990.331559048,-190.19546139795767,-4939.2404599873025,6885.418212452393,0.9948631982189287,-2.786770140218172e-05,0.0002698276758579831,0.10122817417113329
0.91,-2.6868224672924704e-06,0.0005623641169849715,-0.007198134796207098,-45.067560146330486,49.805489228426836,4.946821834020423,-1658960.3058249927,5100654.922669264,3603024.7590965047,-189.90993992309518,-4939.242814071615,6885.596770247749,0.9948650180336329,-2.8035262396929223e-05,0.0002713162596594201,0.10121028354100473
0.915,3.1315266051713525e-06,0.0005869832218330999,-0.007214699398727977,-45.05016339617152,49.781192381588426,4.945421612507016,-1658961.254660837,5100630.226449455,3603059.187526618,-189.62439774555767,-4939.2451092964,6885.775275055296,0.9948668388030896,-2.8189119963414982e-05,0.0002727137662444563,0.10119238055566586
0.92,-2.557984380156213e-05,0.000594965182659724,-0.007207992302756528,-45.05277155364942,49.76832223645676,4.935515543290795,-1658962.2020692835,5100605.53021819,3603093.616849056,-189.33898092482127,-4939.247396922642,6885.953700231502,0.9948686634217336,-2.8334745772376698e-05,0.0002741739753320745,0.101174436332637
0.925,-7.756800088368196e-06,0.0005793116160277269,-0.007216698410231423,-45.03805702568947,49.756279123892234,4.939272568752647,-1658963.1480506565,5100580.833975458,3603128.0470634364,-189.05356826575414,-4939.249695637663,6886.132051754814,0.9948704860108781,-2.8553796007509554e-05,0.0002756467751700444,0.10115650877731648
0.93,-5.533239335598859e-06,0.0006065186745432227,-0.0071798926417798534,-45.035424042147625,49.73178943355769,4.937138530729804,-1658964.0926052108,5100556.137721246,3603162.4781695297,-188.7682534596102,-4939.251989030887,6886.310385597375,0.99487231048819,-2.8724564532047707e-05,0.00027708514840991147,0.10113855952410246
0.935,2.2197363876519126e-06,0.0005584949608669782,-0.007186942220986893,-45.02508884423574,49.70123854736883,4.932817606421035,-1658965.0357333375,5100531.441455656,3603196.910167055,-188.48299722850618,-4939.2542469930695,6886.488624692744,0.9948741253162334,-2.8896656360598524e-05,0.00027859175529475314,0.10112070177701814
0.9400000000000001,7.871569808564493e-06,0.0006004600341003955,-0.00718749257571961,-45.01018947882409,49.686515790419044,4.92974735755922,-1658965.977435436,5100506.745178838,3603231.3430554788,-188.1978422057605,-4939.25647996773,6886.66674470153,0.9948759416374607,-2.903732952323171e-05,0.0002799808776704073,0.10110282646156626
0.9450000000000001,1.9007757160537077e-05,0.0005990256523162433,-0.007190597410416473,-45.006407853752464,49.659877988647814,4.92659372448808,-1658966.9177119965,5100482.048890817,3603265.7768343836,-187.9127819030367,-4939.258728727398,6886.844817165217,0.9948777577455435,-2.917455284769951e-05,0.0002814758035603298,0.10108494973742166
0.9500000000000001,-1.4798901300233275e-05,0.0005978547542704989,-0.007185819331125097,-45.006262116457975,49.63663180637436,4.921071873967653,-1658967.856563421,5100457.352591637,3603300.211503387,-187.62778786281575,-4939.260943424903,6887.022784243747,0.99487957431648,-2.928371799873857e-05,0.0002829699757982561,0.1010670652503385
0.9550000000000001,-7.336937270287069e-07,0.0005878087525715856,-0.007167641261458375,-44.98799725124143,49.627527624325566,4.937199172136556,-1658968.793989977,5100432.656281443,3603334.647061973,-187.34283462743258,-4939.263133707329,6887.200650067296,0.9948813893549889,-2.9476667796984052e-05,0.00028445269418820305,0.1010491926384255
0.96,-5.9033451398575084e-06,0.000592119075107605,-0.007201107580007825,-44.97693217445504,49.6031303726976,4.9245437342607845,-1658969.729992078,5100407.9599604,3603369.083509967,-187.05800571060095,-4939.26528387621,6887.378547645052,0.9948831994870323,-2.963208377465227e-05,0.00028591398056988484,0.10103136519705783
0.965,5.921941954584147e-06,0.0005670517742670312,-0.007182611263125185,-44.96603051233394,49.58360828164947,4.918560447145014,-1658970.6645702408,5100383.263628546,3603403.520847157,-186.7732594383785,-4939.267457491364,6887.556328376268,0.9948850177453706,-2.9801470356687e-05,0.0002873846793058555,0.10101345448855868
0.97,1.7480853146858796e-06,0.0005779960338458567,-0.007167825086733581,-44.967234090432456,49.5590298659796,4.918938815606117,-1658971.5977248766,5100358.567285805,3603437.9590730546,-186.48859487314328,-4939.26963913781,6887.734030611473,0.9948868310279531,-2.993510130109692e-05,0.00028879601790401287,0.10099558974483586
0.975,-5.9808951490210715e-06,0.0005841141068201496,-0.00716458479416745,-44.95505313599777,49.54338881773385,4.91416968165228,-1658972.5294563011,5100333.8709322885,3603472.398187235,-186.20397498952778,-4939.27176730919,6887.911641510039,0.9948886402468078,-3.008186615272667e-05,0.00029023352441175874,0.1009777617470332
0.98,5.913225643198862e-06,0.00057580902688369,-0.00717244607684131,-44.94041615376635,49.51501064238765,4.919732003034628,-1658973.4597648315,5100309.174568095,3603506.838189324,-185.91943707732653,-4939.273910215707,6888.089194081164,0.9948904483212239,-3.0249396803983166e-05,0.00029168429693480737,0.10095994178108066
0.985,-1.8869985760979478e-05,0.0005678108710876952,-0.007187017004084991,-44.943038725610066,49.49410769185545,4.912924584650115,-1658974.388650995,5100284.478193312,3603541.2790789776,-185.63502835261954,-4939.276002944868,6888.266667526908,0.9948922580651587,-3.0385253609113275e-05,0.0002931174142316676,0.10094210222165735
0.99,-1.9081642760106428e-06,0.0005635289579347925,-0.007191641264383341,-44.93012953741879,49.47907483609329,4.9042108441848695,-1658975.316115171,5100259.781808115,3603575.720855755,-185.35064207768,-4939.278076013877,6888.4440432731735,0.9948940711675545,-3.0580744268107026e-05,0.0002945243828947934,0.1009242264070181
0.995,3.863976934592134e-06,0.0006103603586555659,-0.00717756891831692,-44.92294014829037,49.456910001970556,4.899720875177604,-1658976.2421576134,5100235.085412469,3603610.1635192446,-185.06633486942215,-4939.280182289253,6888.621352725005,0.9948958851177677,-3.073296991103842e-05,0.0002959249806304102,0.10090633904578952
1.0,-3.010835806259946e-05,0.0005937394476348801,-0.007172530718428707,-44.91123206102848,49.43855054817733,4.900518603181526,-1658977.166778699,5100210.38900632,3603644.6070690616,-184.7820993513125,-4939.282277020442,6888.798573989036,0.9948976951606906,-3.088264239725036e-05,0.0002974435163848984,0.10088848664521886
1.0050000000000001,9.710234280641833e-06,0.0005827898397107089,-0.007159190104524976,-44.903430183892965,49.410883307017514,4.895464272158417,-1658978.0899788367,5100185.692589735,3603679.0515048495,-184.49795572498107,-4939.284357299528,6888.975741071919,0.9948995036202353,-3.11126164750706e-05,0.0002989121436231631,0.10087064676973662
1.01,-6.637546248696279e-07,0.0005929170714830317,-0.007166606881679568,-44.88780922584122,49.39036423476567,4.896892529732168,-1658979.0117584653,5100160.996162799,3603713.4968261933,-184.2138956973747,-4939.286416862192,6889.152796526412,0.9949013084054155,-3.124078059419526e-05,0.00030036357872168835,0.10085284001418428
1.0150000000000001,1.3646427746657723e-05,0.0005725067689620934,-0.007150626118093776,-44.88983992662112,49.37814808692239,4.90238926875218,-1658979.932118079,5100136.2997256005,3603747.9430326694,-183.92994977479478,-4939.28846254066,6889.32979399693,0.9949031147310046,-3.139730641062231e-05,0.0003018375865187259,0.10083501478566943
1.02,-5.89072165609378e-06,0.0005803091614096334,-0.007136422643312624,-44.87295392629526,49.33970750400735,4.896670083449621,-1658980.851058026,5100111.603278291,3603782.3901240644,-183.6460290732364,-4939.290461182321,6889.506763929687,0.9949049167238003,-3.15130818625056e-05,0.00030326443720758256,0.10081722926372672
1.025,-1.4645925970816235e-05,0.0005765182477027776,-0.007147271505644876,-44.863905507668825,49.3296350991161,4.89875370765257,-1658981.7685787268,5100086.90682105,3603816.8380999346,-183.36225122349563,-4939.29243555629,6889.683584139384,0.9949067148098748,-3.1679407089715134e-05,0.00030470577131141947,0.10079947905138492
1.03,6.030609839476597e-06,0.0005807674617441642,-0.00713587166064104,-44.85444517314995,49.3112696911769,4.894446763849677,-1658982.6846807047,5100062.210353951,3603851.2869598577,-183.07854000068016,-4939.294403949944,6889.860385115293,0.9949085153127978,-3.186656179462112e-05,0.0003061354691444297,0.10078170182965343
1.035,-9.55274363499926e-06,0.0005731250953789881,-0.007138309474307741,-44.84663902728672,49.280929727781206,4.8874996829455775,-1658983.5993643147,5100037.513877007,3603885.7367036096,-182.79490397773117,-4939.296373378834,6890.037115651201,0.9949103126226537,-3.200335021825672e-05,0.0003075809462766486,0.10076395291392952
1.04,-4.915626389365683e-06,0.0005860881058950573,-0.0071388500032186645,-44.84612487024734,49.260027024710645,4.885898119001954,-1658984.5126299595,5100012.817390266,3603920.1873306944,-182.5113538966592,-4939.298323331762,6890.213718361283,0.9949121102324359,-3.217697541627778e-05,0.0003090034888417477,0.10074619791499588
1.045,5.687906612516839e-06,0.0005948482821252276,-0.007143223715033569,-44.83502607458434,49.23957891777307,4.897850944536509,-1658985.4244779614,5099988.120893858,3603954.6388405915,-182.22784691667826,-4939.300239480481,6890.390240456629,0.9949139076497528,-3.2342332146344414e-05,0.00031045944183449647,0.10072844153469154
1.05,-9.820780050775982e-07,0.0005729817519440996,-0.007145482032150037,-44.82210390481918,49.22784714879043,4.878236034582464,-1658986.3349086966,5099963.424388032,3603989.091233019,-181.9444470908968,-4939.302091121815,6890.566730473757,0.9949157058432584,-3.248352425179796e-05,0.0003119398536202759,0.10071067423445894
1.055,1.2031619949632675e-05,0.0005608469222875254,-0.007135150663194659,-44.80261818101465,49.19812644572663,4.885961593975887,-1658987.2439225803,5099938.727872739,3604023.544507688,-181.66110639350717,-4939.304026391781,6890.74313705509,0.9949175043023564,-3.2635802806604867e-05,0.0003133641973900925,0.10069290129177329
1.06,-1.0522174828902815e-05,0.0005835662805797286,-0.007132232141449488,-44.79768054681103,49.17966739084656,4.87961463392407,-1658988.1515201505,5099914.031347898,3604057.998664203,-181.37792171507343,-4939.305909717777,6890.919469021965,0.9949192998522535,-3.2752649639508225e-05,0.00031476163498377486,0.10067515400474394
1.065,2.6718933518926535e-05,0.0005822184811306191,-0.0071514610011737135,-44.78846896763011,49.14627989162437,4.881401561352241,-1658989.0577019285,5099889.334813642,3604092.4537021774,-181.09478946681813,-4939.307792583953,6891.095720681427,0.9949210943293879,-3.293131036683792e-05,0.00031620990601887637,0.1006574139606091
1.07,3.94697921111185e-06,0.0005806845779382325,-0.007150525158152099,-44.78027472713588,49.127604679246204,4.872637328117631,-1658989.9624683175,5099864.638270117,3604126.909621123,-180.81176610891896,-4939.309617416866,6891.2718576888665,0.9949228933301879,-3.301701720879583e-05,0.0003176641944683135,0.10063962602684746
1.075,-1.887285936163478e-05,0.0005820168587075316,-0.00711056814993452,-44.77308945510216,49.1165194193344,4.868947000927574,-1658990.8658197504,5099839.94171743,3604161.366420541,-180.52880708589933,-4939.311457467806,6891.447909482442,0.9949246917747829,-3.315897821498035e-05,0.00031910893820187976,0.10062184040664834
1.08,8.4202255208165e-06,0.0005785763617775955,-0.007105964364132346,-44.76642523130868,49.08392448034886,4.868045311348354,-1658991.7677565198,5099815.245155516,3604195.8241001153,-180.24590072052683,-4939.313308119025,6891.623920221106,0.9949264798467823,-3.335800252746052e-05,0.0003205512585078968,0.10060415415789059
1.085,5.395337730168377e-07,0.0005674124143857719,-0.007119778355056665,-44.75625285184418,49.05816600896472,4.872535362091982,-1658992.668278989,5099790.548584476,3604230.2826594408,-179.9630869022255,-4939.3151079059235,6891.799809855063,0.9949282664496253,-3.348827128709415e-05,0.0003219918859864908,0.10058647930663636
1.09,-1.0059453870699641e-05,0.000592367979078586,-0.0071310039127710344,-44.73894614363479,49.03879599941939,4.862280779551288,-1658993.567387646,5099765.852004561,3604264.7420980255,-179.6803759901441,-4939.316858428123,6891.975624136113,0.9949300562179026,-3.363534560809054e-05,0.0003234027621614361,0.10056877007082296
1.095,8.080233704738055e-07,0.0005819298226208098,-0.007111722662426182,-44.71999227368344,49.027499182424435,4.859788538100437,-1658994.46508301,5099741.155415797,3604299.20241547,-179.3977695629359,-4939.318647103762,6892.151353680236,0.9949318484696595,-3.381506649883002e-05,0.0003248730450747157,0.10055103288774453
1.1,-5.998413777247211e-06,0.0005744478227119839,-0.0071210810749146765,-44.72063313472907,48.99798932064399,4.856229958367618,-1658995.36136561,5099716.458818016,3604333.6636114903,-179.11527046902464,-4939.320465249714,6892.32705436187,0.9949336355664391,-3.3965116802304236e-05,0.0003263200982187219,0.10053334362345971
1.105,1.526798779122865e-05,0.0005795794163477433,-0.00710893484060113,-44.710142992679266,48.97069706284054,4.861382273742572,-1658996.2562358417,5099691.762211265,3604368.1256857086,-178.83282217677615,-4939.3222350820015,6892.502632987478,0.9949354247038303,-3.413022413652124e-05,0.0003277468295459734,0.10051563105583355
1.11,2.5649995755172763e-05,0.0005719333746379874,-0.007107358767875582,-44.70907660882575,48.94917093793088,4.850301650279236,-1658997.1496941017,5099667.065595802,3604402.588637621,-178.55048180390435,-4939.32395018207,6892.6781321317785,0.9949372104697505,-3.4243714280388286e-05,0.00032919166983039666,0.10049794865012962
1.115,-1.1022126338659727e-05,0.0005615213783678781,-0.007107802585770707,-44.68554076854456,48.919362651862265,4.851423796882988,-1658998.0417407458,5099642.368971755,3604437.0524667567,-178.26817586735436,-4939.325668418709,6892.853522020802,0.9949389955306204,-3.432945847242625e-05,0.0003306201002428435,0.10048027012482523
1.12,-9.845193373428343e-06,0.0005799498848339496,-0.0071253518680106055,-44.67136604393524,48.90296588963558,4.8499989571543365,-1658998.9323762748,5099617.672339163,3604471.517172616,-177.98603570351466,-4939.327368693745,6893.028821720562,0.9949407803922988,-3.450380383069056e-05,0.0003320134201975378,0.10046259049486923
1.125,-1.912486156835145e-05,0.0005651943366042284,-0.007117200294200033,-44.6757789098216,48.87089589306495,4.8391605421209425,-1658999.8216013438,5099592.9756980585,3604505.9827548475,-177.70399192472556,-4939.329072711544,6893.204070802849,0.9949425693294371,-3.4679864736697156e-05,0.00033345287230851495,0.10044486717910069
1.1300000000000001,-1.3667839019506877e-05,0.0005802382170459822,-0.0070765187828390015,-44.65897010143175,48.84998266894067,4.843355184424876,-1659000.7094162668,5099568.279048518,3604540.4492129344,-177.4219772466531,-4939.330743503182,6893.379163946176,0.9949443559137211,-3.487529538081135e-05,0.00033485329247459264,0.10042716411617435
1.135,-1.6858937750316726e-05,0.0005664249585062784,-0.007087772905667068,-44.65296430338592,48.82955807837498,4.841495510038441,-1659001.595821425,5099543.582390682,3604574.916546359,-177.14008609527536,-4939.332390919083,6893.554206019587,0.9949461319568284,-3.5060895409186514e-05,0.00033629250572461374,0.10040956220514921
1.1400000000000001,-7.962366614666611e-06,0.0005789119383559163,-0.007106012337519774,-44.6419026003427,48.804994532191934,4.849660596226495,-1659002.4808172937,5099518.885724661,3604609.384754807,-176.85826133341465,-4939.334017753008,6893.729173110958,0.9949479105223814,-3.525097485843342e-05,0.0003376965582196244,0.10039193227321988
1.145,-7.827935045461347e-06,0.0005659389163049721,-0.007089925075577945,-44.61634788167876,48.78505795860638,4.8305457372304685,-1659003.3644043119,5099494.189050653,3604643.8538379413,-176.5765459447901,-4939.335585367508,6893.904080619575,0.9949496933406683,-3.542207461292994e-05,0.00033913390159643556,0.10037425693265972
1.1500000000000001,9.003634857724086e-06,0.0005763090442025942,-0.007084583086650295,-44.607674261777454,48.75802192367589,4.83477551511902,-1659004.2465830809,5099469.492368585,3604678.3237953503,-176.29496162119315,-4939.337241570388,6894.078883049357,0.9949514718177681,-3.55895709416182e-05,0.0003405390112632711,0.1003566215763635
1.155,7.618942524222344e-06,0.00057242112013492,-0.0070832165378952,-44.59769023281599,48.73763217211615,4.828977120875629,-1659005.1273541732,5099444.7956783725,3604712.794626565,-176.0134753398687,-4939.3388434755825,6894.253602871663,0.9949532486329005,-3.57177980005574e-05,0.0003419741386315672,0.10033899946065462
1.16,-5.4205252394990225e-06,0.0005630564748468816,-0.007076852426137861,-44.58686670069153,48.70870352745776,4.8148016479015885,-1659006.006718032,5099420.098980143,3604747.266331173,-175.7320681652808,-4939.340448517163,6894.428240125791,0.9949550247943335,-3.584849286422333e-05,0.00034339924791061606,0.10032138071393024
1.165,2.647945791188406e-06,0.000581833269631561,-0.0070710137170841405,-44.58101276068378,48.69013149018733,4.834870624849557,-1659006.8846750734,5099395.402273842,3604781.7389086164,-175.45074843425803,-4939.3420718108255,6894.6027373858415,0.9949567990527789,-3.600926777757237e-05,0.00034479779380601337,0.10030377777761981
1.17,-5.7935868981822015e-06,0.0005527002129580658,-0.007061148485784908,-44.56574906483206,48.67121038495676,4.829666171493535,-1659007.7612257425,5099370.705559682,3604816.212358531,-175.16951920461798,-4939.343592028262,6894.777228356285,0.9949585715184392,-3.615467665500381e-05,0.00034624506861288606,0.10028618932424636
1.175,-9.69817165842858e-06,0.0005810316345325266,-0.0070516163150516654,-44.561295426179456,48.64976657769793,4.822369748013665,-1659008.6363705178,5099346.008837884,3604850.6866807234,-174.88839086779973,-4939.345127199727,6894.951648713815,0.9949603412226996,-3.631377031178383e-05,0.0003476177623187095,0.10026862538805732
1.18,-1.3852261054784105e-05,0.0005757252551755471,-0.007079497211789175,-44.54590290112399,48.63316316415746,4.815391628536112,-1659009.5101097869,5099321.312108423,3604885.161874779,-174.60731674366014,-4939.346657659775,6895.125973401206,0.9949621082009051,-3.648966982251489e-05,0.0003490599496148491,0.10025108513161353
1.185,-3.30486822624531e-05,0.000582126901308796,-0.007061872163396307,-44.53833776468646,48.58194232003858,4.814359201201275,-1659010.3824439228,5099296.615371239,3604919.6379402922,-174.3263376248065,-4939.3482156364325,6895.300231996421,0.994963881858564,-3.667459663018902e-05,0.0003504878940120307,0.10023347549669996
1.19,-2.4583237965164407e-05,0.0005705077474148204,-0.0070640717124204645,-44.52182501166878,48.575685045498936,4.817912785710073,-1659011.2533734872,5099271.918626495,3604954.1148766074,-174.0454881833719,-4939.349682172171,6895.47429407771,0.9949656507793229,-3.690886149541573e-05,0.0003519269531216206,0.10021590968720617
1.195,-1.52003023950759e-05,0.00057524715592877,-0.007062204964695803,-44.51967177431257,48.54093069240199,4.81675251128535,-1659012.122899042,5099247.221874387,3604988.5926832487,-173.7647337129331,-4939.351160806964,6895.648362455246,0.9949674199498739,-3.7119160158326036e-05,0.00035333923120076035,0.10019833836869275
1.2,-1.844563055325359e-05,0.00056844963588585,-0.0070746906914109665,-44.50616216939237,48.52099937616296,4.804018275231771,-1659012.9910210136,5099222.525115047,3605023.071359896,-173.4840548817319,-4939.352575245933,6895.822296347518,0.9949691883372227,-3.7307305074751553e-05,0.0003547656486212698,0.10018077165338646
1.205,2.104449196762861e-05,0.0005755511212943755,-0.007067790862146079,-44.48848630258623,48.494740956848105,4.804654668946534,-1659013.8577398036,5099197.828348538,3605057.550905969,-173.2034611710526,-4939.354028385387,6895.996132963313,0.9949709595446389,-3.750183110502446e-05,0.0003561743436595518,0.10016317385282078
1.21,-4.2507826569076e-06,0.0005954722430634008,-0.007054081775251332,-44.47678991255949,48.46976178532574,4.804972396137562,-1659014.723055956,5099173.131574813,3605092.0313210203,-172.92299979760176,-4939.355461539926,6896.169887429676,0.994972728708681,-3.7599900435200506e-05,0.00035761059230208033,0.10014559314774261
1.215,1.2691201461344246e-05,0.0005825255398164387,-0.0070730560786316735,-44.463099519816474,48.45480323468665,4.811281629867901,-1659015.5869700587,5099148.434793993,3605126.5126046366,-172.64264123427446,-4939.356866606828,6896.343559137104,0.9949744941081011,-3.776586529971332e-05,0.00035909006152756885,0.10012804653240481
1.22,-1.0159294929731447e-05,0.0005837237489290853,-0.007040531873006113,-44.4565580102672,48.41851875250735,4.807775150522949,-1659016.449482622,5099123.738006208,3605160.9947565524,-172.3623841265617,-4939.358247072893,6896.517207166315,0.994976263957964,-3.788646426064648e-05,0.00036054156566949944,0.10011045267426948
1.225,2.2355519553952587e-05,0.0005613038600395765,-0.007033751365062962,-44.44154501649396,48.399134597678696,4.8013216893432,-1659017.3105941375,5099099.041211646,3605195.477776349,-172.0822220631982,-4939.359577989468,6896.69071156732,0.9949780253527573,-3.806417303082961e-05,0.0003619903343192393,0.10009293970727713
1.23,-5.0625380453732206e-06,0.000554528688182942,-0.007027725116120057,-44.43391736696573,48.366832836810026,4.788109081283209,-1659018.17030509,5099074.344410383,3605229.961663477,-171.80215891389582,-4939.360927129937,6896.864139674337,0.9949797847642364,-3.8155386656721306e-05,0.0003633914715179111,0.10007544354794924
1.235,-1.0301813030037983e-05,0.0005528712265692426,-0.007038887457749151,-44.41623169734912,48.350734521468425,4.789658566534445,-1659019.0286159273,5099049.647602375,3605264.4464173615,-171.52217602434092,-4939.3622763032245,6897.037414021206,0.9949815423622245,-3.8313100757830265e-05,0.00036476889659516504,0.10005796237305324
1.24,4.271976863925261e-05,0.0005361090597899188,-0.007038259540418828,-44.40269432076474,48.31670049474128,4.78250270459699,-1659019.8855271384,5099024.950787621,3605298.9320375216,-171.24230839633614,-4939.363625179415,6897.21064996214,0.9949833024438982,-3.848344287538638e-05,0.0003661408870525545,0.1000404534061573
1.245,-9.847633234089284e-06,0.0005722466915529146,-0.0070194492989073065,-44.394042431542935,48.289167812613414,4.7904987002524635,-1659020.7410393052,5099000.253966162,3605333.4185235137,-170.96255840427756,-4939.364958366439,6897.383746880368,0.9949850620790425,-3.851770319822765e-05,0.0003674844430238348,0.1000229459230968
1.25,-9.00374095379805e-06,0.0005955824611734352,-0.0070244552269632535,-44.378898611424184,48.26580826012683,4.785455060058127,-1659021.595152981,5098975.557138213,3605367.9058748046,-170.68291192903087,-4939.366221052115,6897.556769551536,0.9949868166631354,-3.8691742157912104e-05,0.00036890474683572106,0.10000548524354601
1.2550000000000001,-2.2900412862811384e-06,0.0005728569367052061,-0.007013424414893137,-44.3666328714241,48.246652712560234,4.784233294982421,-1659022.4478686957,5098950.860303942,3605402.394090988,-170.4033738483498,-4939.367487498089,6897.729703771086,0.9949885721685883,-3.886952083054358e-05,0.0003703833079913759,0.09998801207784637
1.26,-1.224123586483587e-05,0.0005597016117102443,-0.0070257285955117495,-44.36246627058489,48.222027974354994,4.7795437018967375,-1659023.2991869517,5098926.163463357,3605436.8831716846,-170.12392862580708,-4939.368746396436,6897.902574952133,0.9949903246298739,-3.902490844089875e-05,0.00037180701923495747,0.09997056631596761
1.2650000000000001,8.614548228590269e-06,0.0005748049199227357,-0.007008622144049186,-44.34611642720568,48.20227768768697,4.777669685943192,-1659024.1491081365,5098901.466616536,3605471.3731164834,-169.84454525025376,-4939.369982265956,6898.075344489176,0.9949920798691387,-3.920177296869969e-05,0.00037319551854375475,0.09995308992728254
1.27,-9.372840782316888e-06,0.0005543521573122932,-0.007054938018616893,-44.33623141455842,48.15606672452207,4.773462049718849,-1659024.9976326828,5098876.769763529,3605505.86392497,-169.56527326423156,-4939.371220172849,6898.248050073948,0.9949938305135336,-3.93305172300576e-05,0.00037462680009374026,0.09993565603865617
1.2750000000000001,1.3665434342282842e-06,0.0005494840095421626,-0.007037980743374947,-44.32027369804875,48.14006542288402,4.761504693353874,-1659025.844761186,5098852.072904491,3605540.355596526,-169.28612808626366,-4939.372395204101,6898.420572367806,0.9949955924373569,-3.949893830920421e-05,0.0003760027070877999,0.09991810692778023
1.28,1.068922356977177e-05,0.0005533077731482766,-0.007003756538024709,-44.300752031284134,48.119655266934814,4.761943473949241,-1659026.6904941886,5098827.376039454,3605574.8481305004,-169.0070728749899,-4939.373619843691,6898.59301743582,0.994997349820299,-3.963941329589209e-05,0.00037736918882235967,0.09990059995712748
1.285,3.4271402964906013e-06,0.0005459257427383366,-0.007020201829202686,-44.29269211637262,48.091669905300044,4.773218149979987,-1659027.5348322394,5098802.679168298,3605609.3415265563,-168.72814743323687,-4939.374842369035,6898.765404942196,0.9949990983445803,-3.975762086801985e-05,0.0003787475137714937,0.09988317807881732
1.29,9.130748753769478e-06,0.000580506343023925,-0.007030205428694388,-44.282924386516115,48.06272988688808,4.7651916847211,-1659028.3777759273,5098777.982291244,3605643.8357843813,-168.44932779340758,-4939.375979162609,6898.937724960369,0.9950008506740078,-3.989206506351245e-05,0.0003801056607850636,0.09986571526960969
1.295,-1.3318082353561545e-05,0.0005784471479303042,-0.007027147636728994,-44.263019172178254,48.03604261807906,4.755404621807848,-1659029.2193257431,5098753.285408527,3605678.330903496,-168.17059853927233,-4939.3771076089,6899.1099210425045,0.9950026051597927,-4.0020964555471674e-05,0.00038155124998706457,0.0998482275365557
1.3,-2.0981611979500954e-05,0.0005847461136652241,-0.007002126369367164,-44.25236380866617,48.01434801287281,4.755898273703679,-1659030.0594822369,5098728.588520107,3605712.8268833132,-167.8919988830344,-4939.378260533354,6899.28200577615,0.9950043585726976,-4.0205188714360245e-05,0.0003829861134251976,0.0998307474003594
1.305,2.4505341828234883e-05,0.0005747568618141934,-0.0069924449132469715,-44.23931997904393,47.982588244093556,4.755233240003982,-1659030.8982459628,5098703.89162598,3605747.323723379,-167.6134915559698,-4939.3793899944585,6899.45402057273,0.9950061054259695,-4.0410024093396936e-05,0.00038443473536587704,0.0998133294806302
1.31,-4.9086317929472895e-06,0.0005674171256601036,-0.007010069298369247,-44.226395236242375,47.95670525011958,4.745988212562851,-1659031.7356174514,5098679.1947262995,3605781.8214232386,-167.33510379668024,-4939.3804822744705,6899.625923230217,0.9950078495710131,-4.0499208012161396e-05,0.00038586986026049413,0.09979593557020895
1.315,-6.101453507613619e-06,0.0005562725843692561,-0.007015857081291131,-44.20759117941682,47.93146852008013,4.748224542213833,-1659032.5715972446,5098654.497821133,3605816.3199823303,-167.0568135215062,-4939.3815844003975,6899.797713534122,0.9950095978104029,-4.065974556723919e-05,0.0003872793870264171,0.09977849781712479
1.32,-3.6483842687359654e-05,0.0005485855382778172,-0.007002024158953282,-44.19702451686134,47.90228121831739,4.746744009068913,-1659033.4061859301,5098629.80091051,3605850.819400192,-166.7786606988081,-4939.382664686501,6899.969431037377,0.9950113471963872,-4.082047592212796e-05,0.0003886608932254421,0.09976104563821209
1.325,8.698233276139642e-06,0.0005648846368298207,-0.007005431989473042,-44.17970028708241,47.87636324045303,4.743272641481469,-1659034.2393841085,5098605.103994569,3605885.319676376,-166.50061065302552,-4939.383711857452,6900.141042525897,0.9950130928293697,-4.1054852709192654e-05,0.00039001570152355795,0.09974362786857106
1.33,-8.95268736111731e-06,0.0005837095182128997,-0.006984753781035089,-44.17634274529696,47.84923196063733,4.746885025321356,-1659035.0711923484,5098580.407073402,3605919.820810385,-166.22268527105055,-4939.384755114506,6900.312561217056,0.9950148389938908,-4.118090524155157e-05,0.0003914223204531539,0.09972620154534015
1.335,1.2598845117388023e-05,0.0005727429725916767,-0.0070012360122030945,-44.16242430470412,47.82731720731092,4.741565522883656,-1659035.9016111444,5098555.710147176,3605954.3228017646,-165.94483315723778,-4939.38573512703,6900.483990566355,0.9950165796764265,-4.1355538181141246e-05,0.0003928713683337278,0.09970882664455004
1.34,-8.44434015464742e-06,0.0005500173395489276,-0.006982507699542795,-44.14603922789109,47.79368789191327,4.732851901327937,-1659036.7306409294,5098531.013216036,3605988.8256500796,-165.667080878928,-4939.386720664515,6900.655335427651,0.9950183241743267,-4.147384331268833e-05,0.00039429850684757326,0.09969141069280986
1.345,-1.0545751944067472e-05,0.0005411269790862508,-0.006966522243882584,-44.12376241242217,47.77289878508157,4.7357162346601465,-1659037.558282272,5098506.316279977,3606023.32935477,-165.38945612868355,-4939.387703204715,6900.82654075581,0.9950200637188378,-4.163881198140478e-05,0.0003956638715666861,0.09967404132104875
1.35,-3.6353951408519827e-06,0.0005607181742638308,-0.006976301649925,-44.119128209766785,47.747317474357715,4.732739910347411,-1659038.3845358554,5098481.619339022,3606057.8339153617,-165.1119772005061,-4939.388678715133,6900.997695874627,0.9950217989842245,-4.180677684706272e-05,0.000397006598970711,0.09965671168642562
1.355,3.0412201362419973e-06,0.0005478612533388625,-0.006954068602994621,-44.11268918044233,47.712024956607465,4.723220258120031,-1659039.209402213,5098456.922393267,3606092.3393314774,-164.83456596309603,-4939.389623100311,6901.168750483369,0.9950235363632173,-4.196244250223973e-05,0.0003983997810555379,0.09963935768563056
1.36,-1.4747167075346243e-05,0.000560462155116376,-0.00697037219314785,-44.10168504531636,47.68290654978745,4.720544166091923,-1659040.032881727,5098432.225442851,3606126.8456024746,-164.5572395026029,-4939.390543482845,6901.339648330783,0.9950252679138857,-4.2098274888795384e-05,0.00039976264613801485,0.09962205895514355
1.365,-9.140010048337193e-06,0.0005496458900485717,-0.006951360466183651,-44.08091162959663,47.661115266671295,4.708137101795839,-1659040.8549748657,5098407.528487901,3606161.352727689,-164.28001602352705,-4939.391436405627,6901.510437349138,0.9950270032072243,-4.228151161275513e-05,0.00040115242463249946,0.09960471965452564
1.37,-5.1479413995822075e-06,0.0005680632155382309,-0.006950116592126505,-44.056697285572646,47.62960449009488,4.719318415783345,-1659041.67568219,5098382.8315283675,3606195.860706602,-164.00291376734606,-4939.392377061236,6901.681128109358,0.9950287334746116,-4.2448087698072014e-05,0.0004025166950730596,0.09958742761202623
1.375,6.31513345363663e-06,0.0005767872477338711,-0.00696263103187894,-44.04759258935812,47.60010725540633,4.720867006656746,-1659042.4950044642,5098358.134564282,3606230.3695387975,-163.7259958515978,-4939.393257153355,6901.851749876795,0.9950304631118069,-4.260931729643499e-05,0.00040392777384304807,0.09957013862751582
1.3800000000000001,-1.713782765514859e-05,0.0005593404020505862,-0.006946313386782798,-44.03395726072663,47.574330810315146,4.709026558409724,-1659043.3129424,5098333.437595918,3606264.879223851,-163.44917847777933,-4939.394088352186,6902.0222715202435,0.995032195553595,-4.274421588018701e-05,0.0004053634063013327,0.09955281846956009
1.385,-2.593316885183778e-05,0.0005558577302377203,-0.006945675654522032,-44.015457314277214,47.55088001250096,4.705459613394025,-1659044.1294964915,5098308.740623345,3606299.3897612155,-163.1724581352941,-4939.394941229325,6902.192674444324,0.9950339236466024,-4.293309683629684e-05,0.0004067498029261174,0.09953553889839804
1.3900000000000001,9.527777701822858e-06,0.0005575863572665304,-0.006961588723721347,-44.002004467291705,47.521296275734606,4.706171230584775,-1659044.9446672946,5098284.043646495,3606333.9011503896,-162.8958630963672,-4939.3957984928675,6902.362995171508,0.9950356512815328,-4.314298966399393e-05,0.00040812534743184687,0.09951826089275871
1.395,-1.6286998168195684e-05,0.0005573667127651497,-0.00695106925851477,-43.98493545906219,47.4869217267154,4.701449762120136,-1659045.7584554204,5098259.346665451,3606368.413390919,-162.61938716130575,-4939.396618860961,6902.533216602125,0.9950373825749903,-4.3265116524656243e-05,0.00040951401274023235,0.09950094323530558
1.4000000000000001,-1.5291152110587218e-05,0.0005558807474393897,-0.006939114021291523,-43.983945957981874,47.45716572282445,4.703468408467182,-1659046.5708615086,5098234.649680355,3606402.9264822286,-162.34304816835746,-4939.397420087493,6902.703307068701,0.9950391109462648,-4.345139463292121e-05,0.00041089571118918793,0.09948365174217126
1.405,-8.100545769237424e-06,0.0005766840781464557,-0.006943501926601291,-43.96793822350389,47.437277570137624,4.70184126108086,-1659047.3818860648,5098209.952691421,3606437.440423724,-162.06677431030124,-4939.398153375834,6902.873290994505,0.9950408360439,-4.363481360953389e-05,0.0004122739620041205,0.09946638995781334
1.41,-9.543276030419874e-06,0.0005504755071355921,-0.006935915710592312,-43.95349037332826,47.416601569347804,4.694189650251914,-1659048.1915295273,5098185.255698821,3606471.9552149773,-161.79061065919208,-4939.398886478815,6903.043210550529,0.9950425619103621,-4.3805522808614114e-05,0.00041370575068349355,0.09944911721826
1.415,7.346542661607447e-06,0.000534994146317675,-0.006928470907832772,-43.93234400179403,47.37879718055189,4.690048921286722,-1659048.9997924136,5098160.55870251,3606506.470855615,-161.51454389126457,-4939.399638110417,6903.21304442706,0.9950442856161846,-4.3973297045181835e-05,0.000415071984763585,0.09943186332445697
1.42,4.9608749085114786e-06,0.0005769570783102238,-0.00694560235592462,-43.91955904505488,47.351642452186184,4.6900704912515065,-1659049.8066753712,5098135.861702492,3606540.9873450715,-161.23863919127342,-4939.400368728477,6903.382738294025,0.995046007188612,-4.409519989782447e-05,0.000416403906403001,0.09941462790455373
1.425,4.419495358344107e-06,0.0005324876326315461,-0.0069233595598755145,-43.90577686813422,47.32814828833199,4.682411281456231,-1659050.6121790826,5098111.164698897,3606575.504682768,-160.96284531680638,-4939.401069324898,6903.552340209528,0.9950477326736826,-4.423348451722644e-05,0.0004178396207219721,0.09939734983596762
1.43,-6.687097433333965e-08,0.0005557298538311655,-0.006915167796565887,-43.88969635364944,47.30243414796683,4.688793896240743,-1659051.4163040717,5098086.467691773,3606610.0228682295,-160.68715035397724,-4939.40178060681,6903.7218444204,0.9950494523769854,-4.4362042272057416e-05,0.00041916457979228425,0.09938012707440923
1.435,-1.500783495237157e-06,0.0005759542940198693,-0.0069228249463960286,-43.88348915543043,47.271492616227015,4.6836809676425775,-1659052.219050914,5098061.770681203,3606644.5419010483,-160.41158659076288,-4939.402446840016,6903.891282997176,0.9950511697206015,-4.450752635743376e-05,0.000420546242904453,0.09936292466307732
1.44,-1.603828027662859e-05,0.000560157588148023,-0.006919768218012906,-43.86676871345587,47.239509154404935,4.678075269378714,-1659053.0204201413,5098037.073667384,3606679.061780742,-160.13610427190935,-4939.40308108789,6904.060594477234,0.9950528886451724,-4.466160941951266e-05,0.00042197785972575855,0.09934570317293426
1.445,-1.2832608364720986e-05,0.0005448974083039809,-0.006917413298087054,-43.85035457510673,47.210749940748634,4.680412442514702,-1659053.8204122814,5098012.37665042,3606713.5825066827,-159.8607518294505,-4939.403704367247,6904.229781856264,0.9950546065256736,-4.484792985173303e-05,0.0004233665697720472,0.09932848927396247
1.45,1.669471622911873e-05,0.0005514681949911377,-0.00691100640233274,-43.8360004726064,47.18295132501332,4.669171624169751,-1659054.6190279918,5097987.679630429,3606748.1040783376,-159.58553231023689,-4939.404292189868,6904.398880170514,0.9950563235383204,-4.502248380493289e-05,0.0004247181142106494,0.09931128120158789
1.455,-2.0900037198150457e-05,0.0005672650388441512,-0.006893286639767354,-43.81607044760606,47.15737933289216,4.673407189833906,-1659055.4162678658,5097962.982607459,3606782.6264951723,-159.3104172916341,-4939.404896062101,6904.567853650085,0.9950580386574387,-4.512520894726332e-05,0.0004260933359908857,0.09929408900531726
1.46,-1.005353765156317e-05,0.0005637536043971249,-0.006881894376335564,-43.80589058788546,47.12590969289451,4.660053562369818,-1659056.2121325284,5097938.285581539,3606817.1497567045,-159.03544771474643,-4939.4054714702625,6904.736759187106,0.9950597490585941,-4.532535893745438e-05,0.0004274985242416091,0.09927694089803314
1.465,3.735030682008874e-06,0.0005524786758249286,-0.0069076632712802444,-43.79354641944853,47.101813378934224,4.657823807729995,-1659057.006622567,5097913.5885527255,3606851.673862391,-158.76056771778127,-4939.406054229026,6904.905515625519,0.9950614563402393,-4.5497642939773674e-05,0.0004288976704561488,0.09925982108987817
1.47,-3.0892736943752145e-05,0.000546250737052005,-0.006902135815562902,-43.78123264799861,47.06277317996177,4.663357017426261,-1659057.7997384565,5097888.891521035,3606886.1988116447,-158.48578812495492,-4939.406621871667,6905.074185790347,0.9950631697324985,-4.563285550826926e-05,0.0004302721871213317,0.09924263713445089
1.475,2.4881387617223584e-05,0.0005371773692941199,-0.006908450012203872,-43.76106094309952,47.033509336341574,4.655020661175189,-1659058.5914807906,5097864.1944867065,3606920.724603936,-158.21114547803504,-4939.407109366989,6905.242730665965,0.9950648814577142,-4.585265896516433e-05,0.00043162261992938186,0.09922546693764117
1.48,-1.4014127263960057e-06,0.0005465301786479924,-0.006890201320629417,-43.73884178030471,47.014982637941465,4.652538652835676,-1659059.3818502538,5097839.497449908,3606955.2512386567,-157.93663974952628,-4939.407609951911,6905.411157567759,0.9950665944670583,-4.5931471267197275e-05,0.00043296431594405253,0.09920828094434622
1.485,7.319426627259498e-06,0.000556652740230473,-0.006897781089729105,-43.73347516086318,46.976212677022346,4.635012792735641,-1659060.1708475242,5097814.80041056,3606989.778715371,-157.66226849242915,-4939.4081294065045,6905.579528195132,0.9950683026393421,-4.607796633482898e-05,0.00043432276191636995,0.09919114034538734
1.49,5.010790404139193e-06,0.0005472693313674473,-0.0068856847330974694,-43.71133097010471,46.94794814693999,4.643178933615524,-1659060.9584731276,5097790.103368621,3607024.3070334527,-157.38797283756068,-4939.40864597909,6905.747704429011,0.9950700123837821,-4.620528521288598e-05,0.00043570855106112683,0.09917398085017046
1.495,-3.205159450668027e-06,0.0005399858006487006,-0.006876720044220188,-43.683140479019194,46.91404803957793,4.637758917881039,-1659061.7447276656,5097765.406324214,3607058.83619225,-157.1138423706424,-4939.409116872883,6905.915814513155,0.9950717188417851,-4.633600756258265e-05,0.000437070426209459,0.09915685142072787
1.5,-1.504080044368204e-05,0.0005568405148666113,-0.006874267263526314,-43.681283479376305,46.892650847557086,4.636126349752581,-1659062.5296120136,5097740.709277435,3607093.366191292,-156.839896827718,-4939.409594994449,6906.083802452439,0.995073422788196,-4.648535322139546e-05,0.00043841214650823166,0.09913974427284931
1.5050000000000001,1.4182433624117667e-05,0.000552028987902998,-0.00687678895657411,-43.664646339302216,46.85717478584473,4.631677630240469,-1659063.3131267568,5097716.012228346,3607127.897030069,-156.56600049297558,-4939.410040402718,6906.2517081458,0.9950751258109694,-4.6668316937700674e-05,0.0004397928627010561,0.09912264320824891
1.51,5.01702318188971e-07,0.000555257179366881,-0.0068716081179456484,-43.64932770913962,46.84039526965033,4.635139244959481,-1659064.0952723613,5097691.3151770905,3607162.4287080355,-156.29224124156076,-4939.410461968456,6906.419478553529,0.9950768291714209,-4.6777392801220535e-05,0.0004411688506024011,0.0991055358094174
1.5150000000000001,1.4440350014464958e-07,0.0005536476583388342,-0.00688045418335613,-43.627747830290694,46.798491350676514,4.623847917859585,-1659064.8760494392,5097666.618123763,3607196.9612247585,-156.0185899456988,-4939.41086884081,6906.587210710808,0.9950785309472934,-4.6921296212703536e-05,0.00044254948013426935,0.09908844128416848
1.52,-1.3581889996040454e-05,0.0005514502677059784,-0.006883572585776113,-43.61382301026787,46.77419567026893,4.620134346885026,-1659065.6554586657,5097641.921068406,3607231.494579701,-155.74510059634397,-4939.411274101908,6906.754766343743,0.9950802346203054,-4.706569953591921e-05,0.00044392601598683477,0.09907132472370833
1.5250000000000001,-7.828458893291156e-06,0.0005507419964507651,-0.006879011204774273,-43.60427351369541,46.743180321378865,4.614657000526053,-1659066.43350071,5097617.224011038,3607266.028772197,-155.4717171262586,-4939.4116727966975,6906.922231963545,0.9950819387700452,-4.7243708968341995e-05,0.0004452936851850538,0.09905420039157335
1.53,-3.430029665024881e-05,0.00056014833397461,-0.006845072186358995,-43.57704148561636,46.70118244552152,4.628671975326813,-1659067.2101760767,5097592.526951739,3607300.5638017063,-155.19842960371642,-4939.412047480351,6907.089571754081,0.995083641495308,-4.740722507725945e-05,0.0004466610175733425,0.09903708737098338
1.5350000000000001,1.2220444270920987e-05,0.0005377690374807964,-0.006866100269991219,-43.56342761477647,46.68423095111295,4.619906432200209,-1659067.9854855558,5097567.829890789,3607335.099667661,-154.92536206667637,-4939.412332157574,6907.256809994148,0.9950853355091007,-4.76388864465009e-05,0.00044804519984892126,0.0990200587799056
1.54,5.851797145387623e-06,0.0005287855039183842,-0.006844625886704066,-43.54773645394196,46.655660609741645,4.6131023461663805,-1659068.7594299095,5097543.132828343,3607369.63636962,-154.65237936499219,-4939.41264642587,6907.4239736125855,0.9950870344648262,-4.774930108964166e-05,0.0004493852224295097,0.09900297779826697
1.545,6.258491980840121e-06,0.0005429919603997586,-0.00683264678381845,-43.52879229505405,46.62444651795405,4.6075930636172435,-1659069.532009643,5097518.435764327,3607404.1739071105,-154.37951409338922,-4939.412960034401,6907.59102259781,0.9950887278207622,-4.7873311497011874e-05,0.0004507013226587675,0.09898595021780075
1.55,-1.4866901385518382e-05,0.0005333589265316174,-0.006840987766702702,-43.517512779499235,46.589828524979616,4.598788906519527,-1659070.3032253964,5097493.738698755,3607438.712279548,-154.10678721350277,-4939.413268423044,6907.757952436436,0.9950904179036879,-4.7999812248170815e-05,0.0004520528665436312,0.09896895240674097
1.555,5.234817058863281e-07,0.0005383950589750041,-0.006868277484491871,-43.495855840846716,46.56065945511764,4.603962992041456,-1659071.0730777797,5097469.041631682,3607473.2514862637,-153.83416613320537,-4939.413561053785,6907.924733830609,0.9950921097662049,-4.8176493174623895e-05,0.0004533752180503383,0.09895193384153944
1.56,-7.150557473572756e-06,0.0005241126141178393,-0.00684320555580551,-43.4916269547193,46.52726857328569,4.60089331744516,-1659071.8415674593,5097444.344563237,3607507.791526689,-153.56170568505422,-4939.413816615644,6908.091436448667,0.9950938080817843,-4.8316163733806816e-05,0.000454713901945848,0.09893484733959397
1.565,-1.890916630526618e-07,0.0005426035964175999,-0.006833059892894454,-43.459681336027344,46.49952427878585,4.594812847717708,-1659072.6086950349,5097419.64749364,3607542.3324002954,-153.28932455624152,-4939.41402228249,6908.258005930422,0.9950954999173812,-4.847136417076877e-05,0.00045601515972958664,0.09891782319116234
1.57,-7.450309456528848e-07,0.0005529695868322638,-0.006794967378296125,-43.4468973865004,46.47113993377736,4.5855370414389975,-1659073.3744611794,5097394.950422936,3607576.874106508,-153.0171332490179,-4939.41425950733,6908.424479307044,0.9950971889311871,-4.8613807438076615e-05,0.00045736414087447526,0.09890082424322773
1.575,-7.263154424630147e-06,0.0005398630193549188,-0.0068256159471685686,-43.434663857728324,46.43446288732522,4.591645074067795,-1659074.1388666194,5097370.253351036,3607611.4166447804,-152.74504274127676,-4939.414500241264,6908.590829449439,0.9950988682239817,-4.876015318235028e-05,0.0004587387769780074,0.09888392003016844
1.58,-1.3310327479585637e-05,0.0005390537836662966,-0.006816215178017434,-43.412127841358256,46.40355140211902,4.585363690865105,-1659074.901911939,5097345.556278127,3607645.960014517,-152.4730850873716,-4939.414663592317,6908.757065192023,0.9951005548173261,-4.891950943293217e-05,0.00046007919204147507,0.09886693955144292
1.585,1.912298645983061e-05,0.0005380135726135716,-0.006835696758336196,-43.40111829486352,46.37031938689912,4.581676116430422,-1659075.6635978527,5097320.859204386,3607680.504215139,-152.2012803604421,-4939.414832733886,6908.923183708376,0.9951022387961317,-4.909369870296918e-05,0.0004614161002790869,0.09884998243761982
1.59,-9.037752970555727e-06,0.0005428438751183336,-0.006837916824899405,-43.38003343755797,46.34792449885585,4.5795360293073974,-1659076.4239250142,5097296.162129883,3607715.049246032,-151.92958424769782,-4939.414968557177,6909.089173429457,0.9951039273029124,-4.918696721102068e-05,0.00046275843328084915,0.09883297679213524
1.595,8.363298608921563e-06,0.0005431694745385765,-0.006807910344702357,-43.35288705395522,46.30648093169856,4.573085843941429,-1659077.1828940364,5097271.465054685,3607749.595106693,-151.65802468610633,-4939.415110477607,6909.255090948974,0.995105616056657,-4.9351488911936736e-05,0.0004641058244817963,0.09881596562659001
1.6,2.1821261109901147e-05,0.0005416874214071012,-0.006810351189289617,-43.34601278167845,46.27783346691786,4.571310835786952,-1659077.9405057414,5097246.767978799,3607784.1417965493,-151.38665730146866,-4939.415243997144,6909.420851702428,0.9951072971080098,-4.947276650861913e-05,0.0004654583280178339,0.09879902906092429
1.605,-8.672184264660004e-06,0.000557056138811447,-0.006783944719111014,-43.33316321966191,46.24767343378663,4.573705793238678,-1659078.6967608202,5097222.070902342,3607818.6893149395,-151.1153742247252,-4939.415338727805,6909.586504268751,0.995108978475444,-4.9560200575924095e-05,0.00046681046819560106,0.09878208637871445
1.61,-3.0460864850319005e-06,0.000542197470747839,-0.006802361032192872,-43.305718940990474,46.2174882528941,4.5701951940539205,-1659079.4516597816,5097197.373825528,3607853.2376613477,-150.84421034567274,-4939.415386937842,6909.752059021949,0.9951106530107232,-4.9727259949884e-05,0.00046819331486577017,0.09876520939476523
1.615,1.5385143304871197e-05,0.0005571611860011007,-0.006786874126537702,-43.29475510701001,46.18093522822598,4.567790983310354,-1659080.2052033667,5097172.676748456,3607887.7868352733,-150.573223642286,-4939.4154416176825,6909.917511155619,0.995112331822433,-4.987667559215598e-05,0.00046954058322015284,0.0987482865617323
1.62,3.5426773584376757e-06,0.0005424268260969917,-0.006787777599851518,-43.27063655905562,46.15189870789155,4.558246257374261,-1659080.957392308,5097147.979671228,3607922.336836112,-150.30235286219443,-4939.415450113993,6910.082824504265,0.9951140065065993,-4.998391428358e-05,0.00047092962994410077,0.09873140220454532
1.625,-4.788989830954517e-06,0.0005268708185550715,-0.00678743710352885,-43.26354006082054,46.11495788487568,4.551159409706165,-1659081.7082272763,5097123.28259389,3607956.8876632242,-150.0316345151021,-4939.415484678836,6910.248020324854,0.995115681141238,-5.0116978673499554e-05,0.00047227909744070626,0.09871451558688085
1.6300000000000001,1.9216639456365564e-06,0.0005425531438832651,-0.006788505278766053,-43.233633294802175,46.08797860123626,4.554008707269328,-1659082.4577088861,5097098.585516472,3607991.439315924,-149.761009368702,-4939.415482690016,6910.413059524484,0.9951173554208504,-5.026693106917598e-05,0.0004735878086343112,0.09869762979948467
1.635,-1.1945914306599129e-05,0.0005421348330424882,-0.00679558484900479,-43.22815148552093,46.06048390754845,4.544459241491406,-1659083.2058378467,5097073.888439079,3608025.991793645,-149.49057488641606,-4939.415474516844,6910.57802887343,0.9951190296579535,-5.040405951572683e-05,0.00047493718975577347,0.098680741316174
1.6400000000000001,3.202441374339735e-05,0.0005235544934783784,-0.006797073346848409,-43.20363279624474,46.02667001308074,4.544352309033943,-1659083.9526147998,5097049.191361748,3608060.545095897,-149.22020634473438,-4939.415457950026,6910.742871785336,0.9951207053516021,-5.057559288300192e-05,0.0004762821080173787,0.09866383520821044
1.645,4.70786875479019e-06,0.000529316884833143,-0.006764000750661389,-43.190896777001576,45.997650381496285,4.539023349109652,-1659084.698040347,5097024.4942845525,3608095.0992220873,-148.9500126358697,-4939.415420092397,6910.907604425353,0.9951223811510368,-5.0633155529543686e-05,0.00047759164745389017,0.09864692531849432
1.6500000000000001,2.5826189158189315e-05,0.000523686533803438,-0.006763078353623421,-43.17327520688895,45.96417793602688,4.528987549799788,-1659085.4421151928,5096999.797207581,3608129.6541716536,-148.6799255858881,-4939.4153684860075,6911.072222122513,0.9951240484961835,-5.076005804201039e-05,0.0004789087899173669,0.09863009771034845
1.655,2.231905545063063e-05,0.0005237087872016678,-0.006762061619172064,-43.15265611760493,45.92559978909031,4.5384906076466445,-1659086.1848399292,5096975.100130857,3608164.2099439525,-148.40996898413837,-4939.415321371797,6911.236697524302,0.9951257153370696,-5.083303275909036e-05,0.00048021713237086504,0.0986132723440111
1.6600000000000001,-2.5425985740468304e-05,0.0005177482395003656,-0.006774973892821096,-43.138148580130995,45.90710331672293,4.537772430011261,-1659086.9262153278,5096950.403054562,3608198.766538364,-148.14019049492256,-4939.415196089334,6911.401066954658,0.9951273816406812,-5.0914736824517315e-05,0.0004815246655529757,0.0985964494829721
1.665,-1.1191480383884352e-05,0.0005397624933617437,-0.006761212817328833,-43.11067659540427,45.86463165610877,4.526296197565532,-1659087.6662420884,5096925.705978906,3608233.3239544774,-147.8705137647525,-4939.415066709482,6911.565378484616,0.9951290508415261,-5.111376819155516e-05,0.00048280559946343836,0.09857959452837654
1.67,4.2146900674783146e-06,0.0005185333069506908,-0.006748411661941017,-43.09659259644354,45.83029275026982,4.517051078784072,-1659088.4049209377,5096901.008903872,3608267.882191711,-147.60102587100698,-4939.414946889478,6911.729515063526,0.9951307163395734,-5.128279540016554e-05,0.00048414481063155395,0.09856277376050628
1.675,1.3641115076730462e-05,0.0005483619344301227,-0.006751095313107853,-43.08157383052536,45.791875373971145,4.520137711432107,-1659089.1422526399,5096876.311829457,3608302.4412492616,-147.3316550582288,-4939.414819206177,6911.893505134435,0.9951323784254713,-5.140824819771159e-05,0.0004854350049504873,0.09854598479548807
1.68,1.1856662417238908e-06,0.0005349412130066641,-0.006758114816406911,-43.06263565325862,45.7683560155207,4.510428726840325,-1659089.878237849,5096851.61475584,3608337.001126443,-147.0624286150588,-4939.4146275606945,6912.057367341923,0.995134040852408,-5.151760161421319e-05,0.0004868017297087823,0.09852918911049018
1.685,4.908044140722389e-06,0.0005275852581532775,-0.0067418675659696465,-43.04427686387396,45.74016365989211,4.5135542982620045,-1659090.6128772236,5096826.917683109,3608371.5618226854,-146.79332119404566,-4939.41446466397,6912.221129650306,0.995135704737546,-5.165464482951352e-05,0.0004881319968182655,0.09851237595073556
1.69,-2.8213178904760947e-06,0.0005327232508248372,-0.006740071423970523,-43.0227031457024,45.708483062990105,4.5137950157628755,-1659091.346171414,5096802.220611277,3608406.1233375305,-146.52435499545095,-4939.414268016121,6912.384808476708,0.9951373643456176,-5.1780595893651774e-05,0.0004894448822034351,0.0984956031797092
1.695,1.1619421619743403e-05,0.0005112030670841653,-0.006741893091024382,-43.01406448607189,45.669355763427376,4.512524910564385,-1659092.078121169,5096777.523540488,3608440.6856705123,-146.25554694295002,-4939.41404748476,6912.548384150815,0.9951390232197501,-5.192703936182818e-05,0.0004907686469320275,0.09847883485784929
1.7,1.930365677285772e-05,0.000519674912234417,-0.006728562812560822,-42.98998483592148,45.63912123033567,4.498888697092229,-1659092.808727162,5096752.826470956,3608475.248821002,-145.9868502258468,-4939.413765464514,6912.711811693462,0.9951406822863296,-5.203226048513418e-05,0.0004920424276153563,0.09846206196089914
1.705,-2.5693157079599612e-05,0.000552238914707076,-0.006722576068139589,-42.96277143924564,45.59755200875822,4.497939991145831,-1659093.5379900436,5096728.129402736,3608509.812788294,-145.71830248352643,-4939.413522677599,6912.875105158451,0.9951423377783732,-5.212043334675453e-05,0.0004933391781008761,0.09844532218907087
1.71,9.43593193420143e-06,0.000516327196455774,-0.006736665911814262,-42.955927429189956,45.57433319412403,4.498980440622308,-1659094.2659106855,5096703.432335806,3608544.3775716983,-145.4499542577583,-4939.413249365419,6913.038256479638,0.9951439914678474,-5.232855883041494e-05,0.0004947058694553918,0.09842859733464479
1.715,1.6878911995947772e-05,0.0005468761825684215,-0.006726476424599168,-42.926446378083604,45.53799888793965,4.492876416595201,-1659094.992489781,5096678.735270336,3608578.9431706625,-145.18168393565497,-4939.4129384349,6913.201329306652,0.995145648389986,-5.244046862022443e-05,0.0004959918597665358,0.09841183735987602
1.72,-2.490401605815629e-05,0.0005143571002812446,-0.006720632984344318,-42.92000057603017,45.50670835780935,4.48363135421908,-1659095.7177280092,5096654.038206405,3608613.5095846574,-144.91360736387085,-4939.4126339885015,6913.364268669513,0.9951473024847065,-5.2541364591918204e-05,0.0004973556841920211,0.09839510269388713
1.725,8.049375457725481e-06,0.0005372123720117343,-0.0067187048753653755,-42.89351698015382,45.47626387597319,4.48395470951596,-1659096.4416260477,5096629.341144037,3608648.0768129984,-144.64560804337788,-4939.412312990072,6913.527067652321,0.9951489548940344,-5.27382044072525e-05,0.0004986283279623816,0.09837838259385767
1.73,-2.800186385249688e-05,0.0005295259156672007,-0.006713851839864529,-42.882841705075926,45.433607424284034,4.478302657892981,-1659097.1641845347,5096604.644083303,3608682.644855099,-144.37778675589783,-4939.411980615616,6913.689772609596,0.9951506065224403,-5.285867913294279e-05,0.0004999659375982062,0.0983616672186913
1.735,1.0175696925099356e-06,0.0005268486040920768,-0.006708861865195167,-42.8506182988715,45.40159650204333,4.4787042837169135,-1659097.885404218,5096579.947024353,3608717.213710292,-144.1100865243814,-4939.411599954793,6913.8523044246895,0.9951522566799754,-5.306694867775849e-05,0.000501275559629258,0.09834496393544873
1.74,-2.068655429369669e-05,0.0005211785415543096,-0.006682366988513626,-42.843817052230364,45.37467374520006,4.462295591190429,-1659098.6052859167,5096555.249967313,3608751.7833779044,-143.84259298584925,-4939.4112156747115,6914.014740690074,0.995153905335981,-5.320235681694015e-05,0.0005025856561365488,0.09832827300279859
1.745,1.2592629709603716e-05,0.0005205521308812651,-0.0066975494437925545,-42.823744825819816,45.344357420698806,4.478116538724789,-1659099.3238303023,5096530.552912139,3608786.3538573426,-143.57516126422107,-4939.410853852318,6914.177034520293,0.9951555472026876,-5.33903351919793e-05,0.0005038763142413642,0.09831164798665303
1.75,2.5591756338413913e-06,0.0005192668088597744,-0.00670940986127489,-42.79980829613124,45.320301465620815,4.466352566773882,-1659100.0410379516,5096505.855858988,3608820.925148111,-143.30789841576532,-4939.410406733344,6914.339272940168,0.9951571925260991,-5.3495383807115554e-05,0.000505173591066304,0.09829498512874121
1.7550000000000001,-1.585076437188279e-05,0.0005314984386576804,-0.0067078491427102665,-42.784357735615096,45.27021259014061,4.4705062689010875,-1659100.7569096356,5096481.158807958,3608855.497249812,-143.04077522866513,-4939.410005299663,6914.501407397558,0.995158840483165,-5.362509369426026e-05,0.0005064652028231318,0.09827829274845079
1.76,-7.275303871994383e-06,0.0005181808056212234,-0.006679234663219969,-42.76167567367784,45.24585773175167,4.460484536168267,-1659101.4714461246,5096456.4617591705,3608890.0701617547,-142.773820308784,-4939.409509520883,6914.663369726457,0.995160487757172,-5.3803608885714655e-05,0.0005077827224384886,0.09826160424492385
1.7650000000000001,-1.5686221212094563e-07,0.0005104697486669534,-0.0066811547428205775,-42.74279101289091,45.21000896208601,4.4663624222797385,-1659102.1846481806,5096431.764712774,3608924.643883256,-142.50700217263272,-4939.409049328764,6914.825230723022,0.9951621277395944,-5.395748130859567e-05,0.0005090692194004838,0.09824498689461564
1.77,-2.52351896449566e-05,0.000542049593362099,-0.006684891481063194,-42.73022556860754,45.1714194048489,4.449223560788128,-1659102.8965165475,5096407.067668831,3608959.2184137953,-142.2403445985556,-4939.4085277989925,6914.986985022422,0.9951637679251838,-5.4091752219424845e-05,0.0005103382799590357,0.09822836473174834
1.7750000000000001,-1.9062350175529747e-07,0.0005523134400658605,-0.006671894933827858,-42.70419874311254,45.14301554545992,4.456879568440058,-1659103.6070518952,5096382.37062747,3608993.7937526377,-141.97379446667463,-4939.408016410386,6915.148551999673,0.9951654087052063,-5.4296175580703876e-05,0.0005116797491543175,0.09821173327235025
1.78,1.1687635869378251e-05,0.0005400858701427243,-0.006670486884027758,-42.68127219673399,45.11649890982404,4.452424734067792,-1659104.3162549466,5096357.673588758,3609028.369899151,-141.7074260353669,-4939.407468397106,6915.310053281223,0.9951670460051926,-5.4440793662328e-05,0.0005130529047087724,0.09819513408624642
1.7850000000000001,1.6885494398493324e-05,0.0005250101116492011,-0.006673495997084241,-42.666082982287506,45.07434932252596,4.437540799554799,-1659105.0241265278,5096332.976552764,3609062.9468529345,-141.44120645032532,-4939.406929456895,6915.471460161466,0.9951686826981531,-5.455285607231499e-05,0.0005143985550927785,0.0981785383621866
1.79,-6.15034678450385e-06,0.0005318573026893636,-0.006637469010401927,-42.643261300607634,45.03287177732146,4.435886413646757,-1659105.7306673322,5096308.279519468,3609097.524613269,-141.17511530328247,-4939.406388847467,6915.632673664352,0.9951703198711424,-5.4648290181842655e-05,0.0005157079734109482,0.09816193511957114
1.795,1.3970692515228644e-05,0.0005353688918967708,-0.006634162355771899,-42.63030943672363,45.00497839812828,4.4374823090549125,-1659106.435878127,5096283.582488967,3609132.1031793025,-140.90920269156877,-4939.405811555898,6915.793739671766,0.9951719479137103,-5.4802669625035103e-05,0.0005170287787038527,0.09814542151084187
1.8,-5.290189218042652e-06,0.00051195166259619,-0.006674641033024825,-42.61082437807319,44.96789103299392,4.43430435424208,-1659107.1397596446,5096258.885461449,3609166.6825504377,-140.64340427642261,-4939.405195952067,6915.954714479893,0.9951735748675078,-5.490784666028296e-05,0.0005183632578639645,0.09812891607516275
1.805,1.7584683592121528e-06,0.0005165718438288201,-0.006649589661241473,-42.589447986876614,44.92891469288613,4.42592808409506,-1659107.8423125544,5096234.188437076,3609201.2627261057,-140.3777596072134,-4939.404552932421,6916.11555263481,0.995175211502199,-5.5055251169881775e-05,0.0005196347456801263,0.09811230993205722
1.81,2.9032685713374107e-06,0.0005089581435127142,-0.006639518958946583,-42.573437848722655,44.896861926099675,4.425577786290496,-1659108.543537638,5096209.491415937,3609235.843705571,-140.11227385651463,-4939.403902546095,6916.276233453646,0.9951768417095321,-5.518621973861186e-05,0.0005209194604240862,0.09809576607804096
1.815,1.5640571989926065e-05,0.0005141079467651142,-0.006644688339459172,-42.54639332676022,44.86335633840469,4.420945126329639,-1659109.2434356248,5096184.7943981355,3609270.4254881623,-139.84692091222936,-4939.40321815512,6916.436803175459,0.9951784691809626,-5.5312459800892756e-05,0.0005221855147174097,0.09807924725167895
1.82,-7.344800040790245e-06,0.0005210858265120656,-0.006631672131291672,-42.528018095629655,44.82741815522469,4.413675961369652,-1659109.9420072958,5096160.097383751,3609305.0080733025,-139.581747418343,-4939.402535765457,6916.597252792335,0.9951800976389203,-5.540827959305172e-05,0.0005234675037471852,0.09806271551963194
