t_s,gyro_x_radps,gyro_y_radps,gyro_z_radps,accel_x_mps2,accel_y_mps2,accel_z_mps2,ins_pos_ecef_x_m,ins_pos_ecef_y_m,ins_pos_ecef_z_m,ins_vel_ecef_x_mps,ins_vel_ecef_y_mps,ins_vel_ecef_z_mps,ins_quat_w,ins_quat_x,ins_quat_y,ins_quat_z
0.0,-7.6074043828238135e-06,0.0005857463945836355,-0.007483636177655098,-48.9332515590179,55.548571330210336,5.139254318169523,-1656201.7170614246,5097264.758841336,3591181.9960583495,-258.4057955714953,-5260.056020287632,7298.290012616031,0.9945218953682734,0.0,0.0,0.10452846326765353
0.005,2.891421491219581e-06,0.0005820123560594818,-0.007464442456084508,-48.941563248169075,55.54590611648554,5.140442508846012,-1656203.0083051568,5097238.458547808,3591218.488001974,-258.09169729700614,-5260.061390577159,7298.487437043221,0.9945238508256237,-1.7198225177976953e-07,1.454356060556813e-06,0.10450985664915938
0.01,-5.701978908342537e-06,0.0005714081134849154,-0.007468099729155681,-48.93401702475511,55.545917698191445,5.144517340193677,-1656204.2979783362,5097212.15822748,3591254.9809327074,-257.7775744483345,-5260.066740889521,7298.684856447831,0.9945258009188186,-3.16885492292133e-07,2.9021712298934563e-06,0.10449129771545276
0.015,-7.190315119601538e-06,0.0005597015907589883,-0.007455093670526522,-48.94042671506414,55.54163980548082,5.148157662348513,-1656205.586081014,5097185.857880381,3591291.474850607,-257.46349671564803,-5260.072098649322,7298.882303399151,0.9945277516188987,-4.803845275975507e-07,4.321376074319075e-06,0.10447272965206301
0.02,-5.107424114032427e-06,0.0005910916068685026,-0.007482503676667179,-48.95079065620929,55.52939543752961,5.144662979412919,-1656206.8726132785,5097159.557506567,3591327.969755734,-257.14940899283613,-5260.077427007672,7299.079747257354,0.9945296985741013,-6.445263704270937e-07,5.7110860521730955e-06,0.10445419388935656
0.025,-1.6985896737353712e-05,0.000580249725545611,-0.007443748953130227,-48.954736055614845,55.52917900978861,5.134609770389038,-1656208.1575750485,5097133.25710618,3591364.4656479326,-256.83529904262474,-5260.082727765455,7299.277132342057,0.9945316523377872,-8.116869090450767e-07,7.179385658754227e-06,0.1044355899397732
0.03,3.7381061309641605e-07,0.000578439120461666,-0.00747020375020654,-48.9630753871568,55.53320886107994,5.137707496404391,-1656209.440966209,5097106.956679192,3591400.9625270003,-256.52116515180484,-5260.088067450038,7299.474494672401,0.9945335956348664,-1.0055498486249167e-06,8.617627517858479e-06,0.1044170823108434
0.035,9.409296825879001e-06,0.0006019262720697671,-0.007487542109833778,-48.96867173032739,55.52743337494136,5.146810091005961,-1656210.7227866135,5097080.656225536,3591437.460392948,-256.2069966935379,-5260.093394811592,7299.671884390856,0.994535545490131,-1.1557786821218825e-06,1.0055899163462484e-05,0.10439850886957458
0.04,8.224985473246734e-06,0.0005540067568556858,-0.00749973647091121,-48.97369227125402,55.516177784319616,5.140822287832689,-1656212.0030361842,5097054.355745375,3591473.959245861,-255.89283162489912,-5260.09866949216,7299.86928093452,0.9945374995202375,-1.2896727295865847e-06,1.1554926001487025e-05,0.1043798922822498
0.045,-8.338977704865079e-06,0.0005423840891470696,-0.007454984978972978,-48.96931735594046,55.514691308125876,5.141213582329327,-1656213.2817149216,5097028.055238852,3591510.4590856144,-255.57866325723305,-5260.10393966127,7300.066620430523,0.9945394563827097,-1.41400714939623e-06,1.2934499363295406e-05,0.10436124533888813
0.05,-9.908551726853188e-06,0.0005914845131668858,-0.00748894139719898,-48.98348814071124,55.50643150279381,5.139384304485267,-1656214.5588228893,5097001.754705949,3591546.959912087,-255.2645238665372,-5260.109221894527,7300.263968392219,0.9945414012202888,-1.5764915187574277e-06,1.4280853285135699e-05,0.10434270962724954
0.055,-1.1045865400833875e-06,0.0005779915412834412,-0.007461347720857794,-48.98487928940829,55.508331562384356,5.13727962266556,-1656215.834360049,5096975.454146716,3591583.4617251954,-254.95034002770217,-5260.114471209274,7300.461275115623,0.9945433545648322,-1.7556877939665822e-06,1.574887864537269e-05,0.10432408945119458
0.06,1.1933481698471225e-05,0.000574387116610071,-0.007474308583041309,-48.99404506138656,55.50699987784736,5.136398113735145,-1656217.108326274,5096949.153561193,3591619.9645248633,-254.63614997478606,-5260.119738227346,7300.658592099212,0.9945453003637751,-1.909474064444917e-06,1.7185651921522505e-05,0.10430553784596394
0.065,-8.208590330288332e-06,0.0005402478909364306,-0.007477833850544653,-48.9980693861546,55.50450669395668,5.132570701785237,-1656218.380721465,5096922.85294936,3591656.468311101,-254.32192639932606,-5260.124994686129,7300.855902935403,0.9945472491939432,-2.0299036137387234e-06,1.8616863077527242e-05,0.10428695397820636
0.07,-5.4069665407213665e-06,0.0005685318657430657,-0.007474764680713452,-48.9929003490518,55.488776275096846,5.14317714088179,-1656219.6515455076,5096896.552311223,3591692.973083856,-254.00769066302726,-5260.130260161937,7301.053199122696,0.9945491985953455,-2.191513242572245e-06,1.9957940138303262e-05,0.10426836130981428
0.075,5.060915007543664e-06,0.0005748339737698417,-0.007468657823109343,-48.996378068577265,55.47987816120707,5.13556151246265,-1656220.9207985508,5096870.251646906,3591729.478843042,-253.69352659838455,-5260.135466586927,7301.250475210531,0.9945511468459567,-2.3535296450281192e-06,2.1370072021875463e-05,0.10424977623560244
0.08,-3.3484356050816875e-05,0.0005703917980920043,-0.007470412819455825,-49.01508309951244,55.48509016067306,5.142210776236269,-1656222.1884807665,5096843.950956531,3591765.985588481,-253.3793596812497,-5260.140683505961,7301.447700539408,0.9945530931556504,-2.4911610947854038e-06,2.2800601541565236e-05,0.10423120630816249
0.085,1.024348530011458e-05,0.000571710418862036,-0.007483703669747363,-49.018982340224895,55.47378687338756,5.145976602877112,-1656223.4545919513,5096817.650240184,3591802.4933201307,-253.06511424018495,-5260.1458554293995,7301.64495913188,0.9945550395738163,-2.723473406764757e-06,2.4210042043176934e-05,0.10421263198279411
0.09,2.2032593222743133e-05,0.0005753813059594357,-0.007471158189716787,-49.00487755445541,55.471202066871825,5.136146895164228,-1656224.7191319445,5096791.349498078,3591839.002038,-252.75088302762245,-5260.150986648976,7301.842188653022,0.9945569891053427,-2.847405702109907e-06,2.5634153531711764e-05,0.10419402457193847
0.095,1.970514644434867e-06,0.0005367089756245947,-0.007487423026829198,-49.00958426329077,55.465738444181596,5.140687072818956,-1656225.9821009352,5096765.048730142,3591875.5117419767,-252.43671321886825,-5260.156187751235,7302.039401956321,0.994558935019213,-2.942981054527977e-06,2.7070463253089172e-05,0.10417544831666331
0.1,1.8855940172213656e-05,0.0005828706064371567,-0.007453709023816038,-49.01779167621019,55.45852180388885,5.136263588121727,-1656227.243499079,5096738.747936281,3591912.0224320097,-252.12254434872114,-5260.161356682334,7302.236611380644,0.9945608848218971,-3.0783680370395395e-06,2.840539312603096e-05,0.10415683158555872
0.105,-1.76724299227147e-05,0.000596301189334607,-0.00749027887296443,-49.02233461874094,55.46249128988573,5.144421199861084,-1656228.503326321,5096712.447116596,3591948.5341079924,-251.80835246945108,-5260.166517635344,7302.433781728802,0.9945628254937084,-3.1837887879561227e-06,2.9859496460484678e-05,0.104138298642936
0.11,1.436108387616745e-05,0.0005749063619765154,-0.007482837394341609,-49.03184479438503,55.44841493119508,5.1389530816051066,-1656229.7615825762,5096686.146271166,3591985.046769939,-251.49414961439916,-5260.1716539919435,7302.630996690821,0.9945647753358213,-3.383533260202086e-06,3.133748338377715e-05,0.10411967473883708
0.115,-6.419551313261099e-06,0.0005641457393141593,-0.007465263000554516,-49.03905612539825,55.45219435333417,5.12890163558817,-1656231.0182677733,5096659.845400111,3592021.5604177825,-251.17992915438347,-5260.176768123512,7302.828140755386,0.9945667228923369,-3.4980595809685364e-06,3.277061230240537e-05,0.10410106929829385
0.12,-2.968143214721354e-05,0.0005847838670354874,-0.007466775379298511,-49.0231076084631,55.44876150423349,5.130389717859074,-1656232.2733817531,5096633.544503382,3592058.075051323,-250.86566281725501,-5260.181923551794,7303.025275490563,0.9945686655265148,-3.6614533004831993e-06,3.41715777543148e-05,0.10408250752025892
0.125,-1.3976059496775067e-05,0.0005672767351993777,-0.007464335990931118,-49.03833295179335,55.4361445783137,5.134840018561685,-1656233.5269246155,5096607.243580808,3592094.590670571,-250.55148215913792,-5260.187106110859,7303.222423742931,0.9945706082037002,-3.888056162569248e-06,3.5617805381052e-05,0.10406394194713527
0.13,-1.042204318422815e-05,0.0005841938178089769,-0.007468753509301062,-49.03726761250923,55.42490272958034,5.137774271304128,-1656234.7788964917,5096580.942632495,3592131.107275455,-250.237268329214,-5260.192218883679,7303.419529802704,0.9945725498994507,-4.0710538981306855e-06,3.70245887295955e-05,0.10404538240167738
0.135,9.397829853024417e-06,0.0005949427115954926,-0.007486083687353836,-49.047589120016525,55.433186041123456,5.133096231915118,-1656236.029297387,5096554.641658687,3592167.624865802,-249.9230897356399,-5260.197304575505,7303.616608978739,0.9945744923941233,-4.249615584310891e-06,3.8474359632635315e-05,0.10402681183539349
0.14,9.44667026555893e-06,0.0005725936964293607,-0.007459425056913679,-49.04292180921212,55.419925332100675,5.133115730936773,-1656237.2781272363,5096528.340659389,3592204.143441598,-249.60884997805593,-5260.202414250441,7303.813709424522,0.994576439045266,-4.381693518389423e-06,3.995601127248885e-05,0.10400819814012827
0.145,-9.273148754510953e-06,0.0005691089995518395,-0.007469621983242483,-49.04292062309062,55.421138100448054,5.1339351248624485,-1656238.5253860152,5096502.039634576,3592240.663002796,-249.2946615631933,-5260.207511126506,7304.010769799364,0.9945783784176107,-4.507836147193712e-06,4.1382106380048614e-05,0.10398965069369533
0.15,-7.910941394225986e-07,0.0005605103410865642,-0.007498771937985787,-49.05708790993384,55.399196602264155,5.130530799094258,-1656239.7710738643,5096475.7385842595,3592277.183549338,-248.9804781361827,-5260.212615444734,7304.2078469864355,0.9945803200926591,-4.679619716425928e-06,4.279467017917205e-05,0.10397107785870648
0.155,7.580237600126194e-06,0.0005546780190270479,-0.007455651249490865,-49.053734741758866,55.40429871783478,5.13045503672935,-1656241.015190743,5096449.437508566,3592313.705081013,-248.6662732440706,-5260.217661837109,7304.404823126648,0.9945822689954373,-4.828081161711158e-06,4.4188058201882154e-05,0.10395243250637659
0.16,-6.979668958296278e-06,0.000550165465873934,-0.007455737157522821,-49.06099379137515,55.38529907916739,5.133950304856019,-1656242.257736626,5096423.136407575,3592350.2275976515,-248.35208009529782,-5260.222735054941,7304.601832256287,0.9945842063432377,-4.954207186299078e-06,4.5569120470018296e-05,0.10393389433434641
0.165,3.143450585980034e-05,0.0005849285763126312,-0.00748911402982135,-49.068916177411865,55.389251825548314,5.128241404797248,-1656243.498711576,5096396.835281377,3592386.751099176,-248.0378998268257,-5260.227744081597,7304.798777467819,0.9945861433662568,-5.1153633336574535e-06,4.693517926645728e-05,0.10391535591411681
0.17,-9.938447507350131e-06,0.0005674544525613963,-0.007473962511025888,-49.070532210256296,55.376351836669244,5.130588525657817,-1656244.7381155149,5096370.534130076,3592423.2755854335,-247.72367569920337,-5260.232776237055,7304.995725532914,0.9945880887075103,-5.1900389331016244e-06,4.839765444605889e-05,0.10389673446202395
0.17500000000000002,9.35405532192673e-06,0.0005796036079789917,-0.007480014701331019,-49.062053421471546,55.37240984661382,5.130361735648477,-1656245.9759483968,5096344.232953699,3592459.8010563375,-247.4094771154674,-5260.237774264164,7305.192636121817,0.9945900297648492,-5.363046552998054e-06,4.980593462998801e-05,0.10387815065240139
0.18,6.970755812387649e-06,0.0005701097484458713,-0.007489211933426428,-49.06955658442011,55.36130640278957,5.13110300331681,-1656247.2122104133,5096317.93175229,3592496.3275117953,-247.09532952678484,-5260.242789612027,7305.3895469532945,0.9945919720430961,-5.491239676716113e-06,5.1249433461178474e-05,0.1038595517550838
0.185,-9.767633898141773e-06,0.0005746437355508943,-0.007472899072524828,-49.068296494227454,55.36467257963969,5.136181059073554,-1656248.4469016767,5096291.630525893,3592532.8549517076,-246.78117577690028,-5260.247769142659,7305.586418032708,0.9945939163602949,-5.622894933284987e-06,5.2668707035823787e-05,0.1038409299528909
0.19,5.357866574193619e-06,0.0005510502719675625,-0.007461876052134259,-49.074643579482135,55.35171565694436,5.130837358243213,-1656249.6800222015,5096265.329274603,3592569.383376072,-246.46703418403214,-5260.252746874951,7305.783327676899,0.9945958560918695,-5.797344825006281e-06,5.4094909186339016e-05,0.10382234867798362
0.195,8.235934140716176e-06,0.0005800299947125648,-0.00747759133506721,-49.08068252866695,55.34993600382551,5.128691457167387,-1656250.911572005,5096239.027998459,3592605.912784826,-246.1528871713775,-5260.257710947394,7305.980174003866,0.9945977926171654,-5.928060001707934e-06,5.546637248734679e-05,0.10380379477360974
0.2,1.5934707348187192e-05,0.0005690696122570623,-0.007484378479148524,-49.07810463798783,55.34462920870896,5.132414174844211,-1656252.1415510224,5096212.726697493,3592642.44317779,-245.83871977376836,-5260.262674894987,7306.177011532639,0.9945997328679135,-6.059141569365029e-06,5.691064034251242e-05,0.10378520175603578
0.20500000000000002,-4.795128658162444e-06,0.0005511430374278293,-0.007474564330561899,-49.079791283924024,55.33476559196001,5.120511866608081,-1656253.3699592832,5096186.425371743,3592678.9745549434,-245.52458453553953,-5260.26762528105,7306.373849781183,0.9946016745314039,-6.168237292347361e-06,5.832965263801518e-05,0.10376659182478674
0.21,-3.431550612095965e-06,0.0005814229885792883,-0.007445059709031922,-49.08390872240821,55.33346690217713,5.119913184143218,-1656254.5967968712,5096160.124021169,3592715.5069161253,-245.21045068059993,-5260.2726045153795,7306.570622935706,0.994603613301532,-6.324225957083369e-06,5.969871289991589e-05,0.10374800626327396
0.215,-3.2923291801883375e-06,0.0005444702592164846,-0.007453828899726946,-49.08249659570705,55.31074196528832,5.128957632565068,-1656255.8220637632,5096133.822645701,3592752.0402611704,-244.8963061443872,-5260.277582609861,7306.767395223111,0.9946055440666242,-6.484673378423319e-06,6.114341865073691e-05,0.10372949402829458
0.22,-7.976543725614406e-06,0.0005855158707727249,-0.007463550782011657,-49.0956134953643,55.31409086255125,5.121730214097693,-1656257.0457600965,5096107.5212455345,3592788.574589937,-244.58222715368538,-5260.282483967023,7306.964111416337,0.9946074767644861,-6.635193242125372e-06,6.249627686776036e-05,0.1037109599529957
0.225,1.3957828518579035e-06,0.0005529696151958678,-0.0074667347561835655,-49.085183994299264,55.30810526745863,5.122102109458941,-1656258.267885865,5096081.219820819,3592825.109902264,-244.2680802068331,-5260.287402358801,7307.160819336935,0.994609411628709,-6.808004208862064e-06,6.39499810710533e-05,0.10369240166783819
0.23,1.7572130509913424e-05,0.0005727453573128145,-0.007484417790770154,-49.09919597432854,55.30610214565677,5.123339380738878,-1656259.4884410591,5096054.918371475,3592861.6461981186,-243.95399747466206,-5260.292335022386,7307.35752253806,0.9946113469752388,-6.949074173290832e-06,6.532518776508624e-05,0.10367383542838306
0.23500000000000001,-1.3365401220681438e-05,0.0005802693683582365,-0.007447072691080302,-49.093944453808575,55.28555663909485,5.122189033894702,-1656260.7074257112,5096028.616897545,3592898.1834774716,-243.63986341731797,-5260.297237291291,7307.554218690622,0.9946132865526242,-7.0550496433313694e-06,6.675375973276571e-05,0.1036552251801591
0.24,-1.3102178011843636e-05,0.0005726417452080041,-0.007456178861899882,-49.09813989562874,55.28621765010397,5.120263137913199,-1656261.9248398575,5096002.315399162,3592934.7217401243,-243.3257950590711,-5260.302115919533,7307.750842416863,0.9946152161021197,-7.23989583645175e-06,6.819302394707959e-05,0.10363670776047137
0.245,1.5250135514756819e-05,0.0005674969113256079,-0.007472779380853739,-49.09320841753378,55.27056984379413,5.126440195714967,-1656263.140683621,5095976.013876365,3592971.260985904,-243.01171036960582,-5260.307002904543,7307.9474694309465,0.9946171476650139,-7.422112810721054e-06,6.961338979658958e-05,0.10361816766185501
0.25,8.594937625531334e-06,0.0005784655806321822,-0.007475041728974257,-49.10242033183849,55.26622021105167,5.12167133905801,-1656264.3549571228,5095949.712329238,3593007.801214738,-242.6976903530507,-5260.3118478865845,7308.144064039643,0.9946190831812303,-7.532500682710586e-06,7.102830700063379e-05,0.10359958624420323
0.255,-9.32979105824036e-06,0.0005601757380472194,-0.007464408214347829,-49.10228033959814,55.25805313420597,5.1252195452374325,-1656265.5676604414,5095923.410757891,3593044.3424264714,-242.3836370842943,-5260.316690660973,7308.340629421447,0.9946210189320351,-7.662278294847252e-06,7.246877456728672e-05,0.1035809991657086
0.26,1.3890524637164889e-05,0.0005730679471671219,-0.00744880285460464,-49.094340143413795,55.240016874499865,5.11376234075402,-1656266.7787935592,5095897.109162392,3593080.8846209985,-242.06961004182622,-5260.321508993444,7308.537181339332,0.9946229515833648,-7.831888557149097e-06,7.385912200427776e-05,0.10356243849527295
0.265,-6.473889565122361e-06,0.0005620158160341362,-0.0074637352379153,-49.102790997876205,55.241933302796525,5.12240795042426,-1656267.9883566916,5095870.80754273,3593117.4277980626,-241.75564288814343,-5260.326355591412,7308.733644423622,0.9946248798448111,-7.947095159420232e-06,7.528753882000927e-05,0.10354391658772315
0.27,5.954061391548408e-06,0.000589161953847258,-0.007465738125040327,-49.111579837303665,55.2255768868541,5.121732484453531,-1656269.196349928,5095844.505898934,3593153.9719575285,-241.44165161983497,-5260.331162948682,7308.9301418314735,0.9946268116257161,-8.110080999679176e-06,7.668320197324332e-05,0.10352535751773856
0.275,2.046205489636193e-06,0.0005616096682494415,-0.0074625921172439495,-49.1084935319149,55.21980731138553,5.116477050753565,-1656270.4027731973,5095818.204231213,3593190.5170993158,-241.12765612114472,-5260.335925430586,7309.126573090632,0.9946287435715889,-8.249190072034228e-06,7.8149582270417e-05,0.10350679342823924
0.28,1.3523612248193318e-05,0.0005713386427075131,-0.00744868606753241,-49.10997165399792,55.21083465655627,5.122496534219958,-1656271.6076265485,5095791.902539625,3593227.063223195,-240.81368436212813,-5260.340709697802,7309.322978500879,0.9946306743602812,-8.390886069531962e-06,7.95464406429998e-05,0.10348823712658954
0.28500000000000003,-2.576085307856758e-05,0.0005537027402695558,-0.007459813255112227,-49.107330410104105,55.209653070901375,5.117642848276264,-1656272.8109101,5095765.6008242145,3593263.6103290725,-240.4997361925827,-5260.345454610569,7309.519372674402,0.9946326012019516,-8.506556932636854e-06,8.097046056204185e-05,0.1034697153647512
0.29,-6.989701572008414e-08,0.0005748704372956408,-0.0074475927657385805,-49.11248853793625,55.19369910374056,5.111782690870976,-1656274.012623945,5095739.299085005,3593300.158416905,-240.18580189484965,-5260.350229273562,7309.71576032247,0.994634530577281,-8.71535211551666e-06,8.234046522626683e-05,0.10345116590644265
0.295,-3.844460942182221e-06,0.0005662453862748009,-0.007471320335342657,-49.11085955150374,55.1809600588836,5.109961478846471,-1656275.2127681302,5095712.997321961,3593336.707486486,-239.87187220514977,-5260.354987917859,7309.912072031405,0.9946364564408983,-8.865736556893359e-06,8.37697498323888e-05,0.10343264679355804
0.3,4.922893825356025e-06,0.0005693622006393738,-0.007449256149398577,-49.116610605166606,55.18138898429958,5.112334561852871,-1656276.4113427529,5095686.695535152,3593373.2575375107,-239.5579768164233,-5260.359735881819,7310.108337938797,0.9946383880938201,-9.023281481989735e-06,8.517661087499959e-05,0.1034140686447092
0.305,-4.876728302769945e-06,0.0005756712920579456,-0.007447340105431332,-49.117647936408,55.16919910700583,5.11305172309026,-1656277.608347855,5095660.393724633,3593409.808569898,-239.2440640687192,-5260.3644715483115,7310.304616917799,0.9946403136939186,-9.159826642689142e-06,8.659348931313705e-05,0.10339554532245804
0.31,2.087194459914361e-05,0.0005690081401730582,-0.007465376175702167,-49.11275554742423,55.16145236960769,5.113185068178779,-1656278.8037834552,5095634.091890499,3593446.3605835834,-238.93017593583954,-5260.36918228947,7310.5008571484495,0.9946422384502392,-9.322369963341366e-06,8.80235228634322e-05,0.10337702673055783
0.315,-1.4123347988879432e-05,0.0005679919032616915,-0.007451669033798492,-49.1131890640792,55.14278665632473,5.118103308242179,-1656279.9976497202,5095607.790032811,3593482.9135784265,-238.61633010111436,-5260.37389277162,7310.697080068992,0.9946441675222548,-9.419168413529507e-06,8.944364188496489e-05,0.10335846324841985
0.32,-1.5109805652610728e-05,0.0005785489302171593,-0.007456633933065117,-49.11629554559651,55.13261858017111,5.116880451462874,-1656281.1899468673,5095581.488151709,3593519.467554252,-238.30252878821258,-5260.378548213496,7310.893250260219,0.9946460927039669,-9.602720862821718e-06,9.085219156354589e-05,0.10333993382230774
0.325,-5.218419295055222e-06,0.0005661318897222207,-0.007441808823599535,-49.121314724763984,55.12515482493747,5.11800786709922,-1656282.3806750309,5095555.186247371,3593556.0225108345,-237.9887366389058,-5260.3831867553645,7311.089382704226,0.9946480188184756,-9.791454783259e-06,9.228673750405124e-05,0.1033213920142721
0.33,6.288692973413835e-06,0.0005694584491978617,-0.007456816479712611,-49.11492866770738,55.12065884435945,5.111662653141358,-1656283.5698342305,5095528.8843199015,3593592.5784480246,-237.67494317942698,-5260.387801368372,7311.285493327643,0.9946499407597144,-9.952381795497165e-06,9.369296229296032e-05,0.10330288703262723
0.335,1.5575189933540483e-05,0.0005612899131993403,-0.007455412095040888,-49.11376812315298,55.118572684403595,5.10789925767038,-1656284.7574245497,5095502.582369269,3593629.1353657153,-237.36118445606576,-5260.392451759669,7311.481582965282,0.9946518662293199,-1.0085557556198047e-05,9.511043037603992e-05,0.10328434469375723
0.34,1.1669924550152506e-05,0.0005844927973249286,-0.007444369405097892,-49.1194193414589,55.10403763325368,5.09653178084999,-1656285.9434461007,5095476.280395333,3593665.6932638334,-237.04743601372533,-5260.397122496705,7311.677664190455,0.9946537909908842,-1.019353169589671e-05,9.650998421173775e-05,0.10326580580897597
0.34500000000000003,-3.3420834442379013e-06,0.000590957826286768,-0.007463302740096876,-49.12260737289237,55.09710077445359,5.103064587256608,-1656287.1278988915,5095449.978398024,3593702.2521421425,-236.7336803014282,-5260.401801076526,7311.873659439875,0.9946557125488519,-1.0317204296572672e-05,9.796622718586902e-05,0.10324729434764633
0.35000000000000003,-1.0528881626054336e-05,0.000559118877473786,-0.007458357904632937,-49.1199206852013,55.0849101461941,5.096554614865728,-1656288.310782936,5095423.676377423,3593738.81200042,-236.4199374380203,-5260.406439341598,7312.06965168611,0.9946576386443472,-1.047987972135497e-05,9.94346709593721e-05,0.10322873577337661
0.355,-1.644019679156342e-05,0.0005690399433193725,-0.007429027371715491,-49.12067943939499,55.07410702292128,5.113433908802773,-1656289.492098346,5095397.374333602,3593775.3728385195,-236.10622658409574,-5260.4110888276755,7312.265588161736,0.9946595631233472,-1.0652208186435648e-05,0.00010082208798329982,0.1032101894616467
0.36,-4.518581146576383e-06,0.0005628870555237367,-0.0074393078676082474,-49.12694963482037,55.0601788843097,5.105909814871563,-1656290.6718453118,5095371.072266746,3593811.9346563322,-235.79255974625883,-5260.415653443129,7312.461536929555,0.9946614796852299,-1.084178850800457e-05,0.00010223265069085213,0.10319171604993267
0.365,8.657991216153551e-06,0.0005764263811103313,-0.007433319638620857,-49.124692562425864,55.051520403441636,5.100774807720908,-1656291.8500239276,5095344.770177086,3593848.497453706,-235.47888664073582,-5260.420210857587,7312.657412356041,0.9946633985555969,-1.1000139205998899e-05,0.00010363098851298624,0.1031732170354543
0.37,-7.012434801817689e-06,0.0005576691995233117,-0.007452262571876865,-49.11232388566508,55.03811679063964,5.102690040230442,-1656293.0266342417,5095318.468064605,3593885.061230361,-235.16523890763105,-5260.4247812548765,7312.853249766998,0.9946653155324657,-1.112921495263174e-05,0.00010506639281616993,0.10315473287200258
0.375,-1.8900106295677137e-05,0.0005585133082125889,-0.007429795152107513,-49.130977388348455,55.033055197321,5.098453322172534,-1656294.2016765375,5095292.165929286,3593921.625986131,-234.8516794962535,-5260.429346779939,7313.049058229764,0.9946672370525853,-1.129242551400123e-05,0.00010645111256434726,0.10313620157257046
0.38,1.5150248161124459e-06,0.000559427866473647,-0.007413863615952371,-49.11598573406483,55.021327219980236,5.105029617207374,-1656295.3751508524,5095265.863771201,3593958.1917208466,-234.5380464524459,-5260.433886938164,7313.244828015583,0.9946691524329853,-1.1485408431070165e-05,0.00010783486680468575,0.10311772610940216
0.385,-2.1296954772481146e-05,0.0005682460625304463,-0.007450510197391232,-49.115702088294235,54.99598824589348,5.093716258203247,-1656296.5470572596,5095239.561590451,3593994.758434394,-234.22451636910148,-5260.43841311941,7313.440590872883,0.9946710633622846,-1.162785706421883e-05,0.00010922615857711624,0.10309929022152078
0.39,-2.5158361953179815e-06,0.0005621059291014689,-0.007435800008330114,-49.1127811723751,54.994662853839785,5.101302841686781,-1656297.7173961136,5095213.259387082,3594031.3261264437,-233.91102524929894,-5260.442934409137,7313.636229052302,0.9946729833887301,-1.1829314614620773e-05,0.00011063349751017655,0.10308076317557827
0.395,8.595016176987814e-06,0.000563829633696549,-0.007440524791406922,-49.12685648556453,54.981697429481656,5.099911873818357,-1656298.8861675903,5095186.957161155,3594067.894796754,-233.597565419711,-5260.447436680056,7313.83189510066,0.9946748992801889,-1.1982483090089609e-05,0.00011203040820773828,0.10306227266829389
0.4,3.204588342431556e-05,0.0005805964555959609,-0.0074210197995348125,-49.121078801034514,54.96747271174253,5.091965465455327,-1656300.05337168,5095160.6549128285,3594104.4644452473,-233.28407046822755,-5260.45189369589,7314.027502245064,0.9946768160429468,-1.2108467792044867e-05,0.00011343446781328206,0.10304377037294615
0.405,-9.409216386255476e-06,0.0005744270797593599,-0.0074301167597128626,-49.1192951054745,54.96118033238215,5.100123754492225,-1656301.219008414,5095134.352642171,3594141.035071613,-232.97062316648604,-5260.456369272368,7314.223043920995,0.9946787274316845,-1.2180451164917348e-05,0.00011488626305688599,0.10302531653757656
0.41000000000000003,-8.96793804727852e-06,0.0005497917143145356,-0.007464364352863812,-49.11296287408853,54.94816290460953,5.100287397946941,-1656302.3830780017,5095108.050349223,3594177.6066757073,-232.65721183771063,-5260.460809773201,7314.418593952663,0.9946806408191126,-1.2353934406415526e-05,0.00011631203930443119,0.10300684005719984
0.41500000000000004,-5.8742557695617995e-06,0.00058180230001839,-0.007442125412253992,-49.115937030230846,54.944359318044924,5.093382179263003,-1656303.5455806782,5095081.748034097,3594214.1792574585,-232.34385882387937,-5260.465240761417,7314.6141065394095,0.9946825626863011,-1.2519986246703767e-05,0.00011767666728769946,0.1029882783780015
0.42,2.7706789590235858e-05,0.0005576074091186772,-0.007417686817858233,-49.11245174905475,54.92718740350277,5.081029419123856,-1656304.706516567,5095055.445696766,3594250.7528167036,-232.03049664194907,-5260.469692070189,7314.809591422758,0.9946844784709542,-1.2686580248350975e-05,0.0001191216933870306,0.1029697719626441
0.425,4.537731389996413e-06,0.0005552787486224063,-0.007440638530032622,-49.120272324120904,54.92019915891747,5.0919530473446475,-1656305.8658857374,5095029.143337116,3594287.3273531436,-231.7171715515342,-5260.474167844813,7315.004984609636,0.9946863876275763,-1.2763432250210375e-05,0.00012051519909549594,0.10295132627404359
0.43,1.395979052278328e-05,0.0005791397891735941,-0.007433621400443315,-49.11055290118666,54.91209448072164,5.098049298883991,-1656307.0236882768,5095002.840955255,3594323.9028665624,-231.40384422305914,-5260.478576303974,7315.200382885182,0.9946883023463858,-1.2897306683015462e-05,0.00012189695009938084,0.10293282348239585
0.435,-1.4753576033738615e-05,0.0005690338499608535,-0.007430055377888912,-49.115198423166675,54.90090995706526,5.093375795212725,-1656308.17992436,5094976.538551389,3594360.479356977,-231.09058903555314,-5260.4829700724895,7315.395783110688,0.9946902149066366,-1.3013889153604466e-05,0.00012334046162980168,0.10291433810095893
0.44,-1.2202737603328428e-05,0.000561680704339439,-0.0074217597589903905,-49.1170799356834,54.87970411644555,5.091894308148559,-1656309.3345941661,5094950.236125576,3594397.0568242613,-230.77733347566112,-5260.487354958013,7315.591130505492,0.9946921262061633,-1.3199272666846335e-05,0.00012475145499350962,0.10289586156068566
0.445,7.3280626432679185e-06,0.0005620362875779099,-0.007424443403383326,-49.11268094029815,54.8629511057546,5.087613721213377,-1656310.4876977804,5094923.933677936,3594433.635268077,-230.46411221863752,-5260.4917011884945,7315.7863956476795,0.9946940350292958,-1.337641882038741e-05,0.00012614481947437913,0.10287740561315764
0.45,2.1344950138526756e-05,0.0005767411106196495,-0.00743299833185046,-49.105525771927056,54.85985996160213,5.082469638413913,-1656311.6392354153,5094897.631208576,3594470.214688051,-230.15094168167826,-5260.496042893558,7315.98159408656,0.994695944198659,-1.350508934306049e-05,0.000127544091258275,0.10285894295031277
0.455,-1.643264037735046e-06,0.000565111544026895,-0.007439301057288994,-49.12292288308783,54.84274510475172,5.07536934301108,-1656312.7892072902,5094871.328717418,3594506.7950839894,-229.83780825602588,-5260.500420365447,7316.176781189946,0.994697855218584,-1.36026875424104e-05,0.0001289835341842571,0.10284045897293452
0.46,1.561019661538855e-05,0.0005550611849999173,-0.007407783055326439,-49.10503017692151,54.83393051050899,5.077885744947388,-1656313.9376133732,5094845.026204471,3594543.376455627,-229.524625020806,-5260.504758709529,7316.371873809943,0.9946997675161176,-1.3754463612819232e-05,0.00013038814679245826,0.10282195929434422
0.465,9.029981989916885e-06,0.0005537596709813014,-0.007443845834398866,-49.105918628309986,54.8220496875809,5.085187710974467,-1656315.0844538037,5094818.723669794,3594579.9588027173,-229.21154721111205,-5260.5091116488375,7316.5669624005495,0.9947016713711054,-1.3860740877255498e-05,0.00013177220280138262,0.1028035379522315
0.47000000000000003,-2.1116455254735893e-05,0.000551979836885372,-0.007417087694103409,-49.10901333122621,54.804320059440215,5.084353155828392,-1656316.2297289278,5094792.421113479,3594616.542125203,-228.8985024187665,-5260.513414619086,7316.762031952738,0.9947035841500174,-1.3983058892679944e-05,0.00013315132979621088,0.10278502689743686
0.47500000000000003,1.1764385868179083e-05,0.0005485630246416805,-0.007435652440852231,-49.09824284622064,54.79714574656535,5.080186319980832,-1656317.3734388864,5094766.1185357375,3594653.1264228686,-228.5854809878664,-5260.517681825155,7316.957034153017,0.9947054897074782,-1.4179877568245326e-05,0.00013451828515594693,0.10276658235811961
0.48,6.360985985656017e-06,0.0005604539974484845,-0.007418250692762781,-49.102839011806935,54.789065478430636,5.08434885888799,-1656318.5155838926,5094739.815936585,3594689.7116954895,-228.2725215037421,-5260.521979069291,7317.152014198483,0.9947073996920891,-1.4294057763923885e-05,0.0001358851906353732,0.10274809160610936
0.485,-1.0322677219017334e-05,0.0005608505094616552,-0.007406225420263528,-49.09395756225926,54.767111081620236,5.079677622600877,-1656319.6561641153,5094713.513316038,3594726.297942972,-227.95956750759225,-5260.526239820497,7317.346978733081,0.9947093048576406,-1.4424723484571468e-05,0.00013728027881358096,0.10272964409400895
0.49,-2.871240449956507e-07,0.0005504042390190187,-0.00740163391356355,-49.1043505105447,54.75719151949921,5.078425761220204,-1656320.795179767,5094687.210674201,3594762.885165064,-227.64669322997582,-5260.530494864748,7317.541858150303,0.9947112065905535,-1.4596975394565243e-05,0.00013867206864654779,0.10271122645626873
0.495,3.5667197865635e-06,0.0005636221245057227,-0.007380215638352569,-49.0948992123796,54.74129932111276,5.074201246069829,-1656321.9326309871,5094660.908011167,3594799.4733614456,-227.3337948491583,-5260.534718605185,7317.7366945048625,0.9947131068057344,-1.4741587141612043e-05,0.00014004045795353804,0.10269282019810007
0.5,-3.6070290541952967e-06,0.0005490882114448572,-0.007413858521607406,-49.090179307474244,54.73989098392948,5.083999577516511,-1656323.068517895,5094634.605326996,3594836.062531862,-227.02096826401657,-5260.538949907437,7317.9314720347975,0.9947150011761362,-1.4880001167455442e-05,0.00014144270741686565,0.10267446716543292
0.505,3.2431066703419148e-06,0.0005556141684895595,-0.007419391955194651,-49.09310740674327,54.71884669556577,5.07117147013318,-1656324.2028407755,5094608.30262173,3594872.6526762536,-226.7081839346398,-5260.543156852571,7318.126284702343,0.9947169038449779,-1.5032536019049966e-05,0.0001428069714245673,0.10265603043783046
0.51,-1.0036708539349756e-05,0.0005881557924765665,-0.007398593379671093,-49.088445137108586,54.71001976491191,5.068220337537736,-1656325.335599771,5094581.999895417,3594909.2437944235,-226.39541429491732,-5260.547368038476,7318.32098311617,0.9947188075879778,-1.5169712798593643e-05,0.00014418922189376527,0.1026375799115495
0.515,1.9317923695728787e-05,0.0005520850947091941,-0.007439150849504141,-49.09213059417656,54.69077203210624,5.076935525174072,-1656326.4667950163,5094555.697148027,3594945.8358860086,-226.08268380764991,-5260.551588081676,7318.51565090426,0.9947207056386487,-1.5348256264282397e-05,0.00014564898999525248,0.10261918107523385
0.52,-2.4986066861455695e-07,0.0005564924449896957,-0.007395178167790769,-49.08944416353391,54.67585638724447,5.064075980376034,-1656327.5964266984,5094529.394379732,3594982.428950814,-225.769988968849,-5260.555729949672,7318.710271330651,0.9947226137643073,-1.544456147765818e-05,0.00014702658668608968,0.10260068133571616
0.525,-2.071556017620575e-05,0.000556521613722435,-0.007416252541287223,-49.0802605819221,54.67376633971632,5.06331550900339,-1656328.7244949776,5094503.091590652,3595019.02298851,-225.4573228027532,-5260.559901741042,7318.904807076397,0.9947245102645833,-1.5590642309683344e-05,0.000148410126081395,0.10258229091929734
0.53,-2.610173206603651e-06,0.0005747865843624409,-0.007406658457060414,-49.08013662429269,54.647326660188604,5.064711212649727,-1656329.8510000512,5094476.788780652,3595055.6179989013,-225.14470658151183,-5260.564098434623,7319.0993494437425,0.9947264118257966,-1.57876327682458e-05,0.00014978848859541452,0.10256384806711924
0.535,-3.486168726699023e-06,0.0005591308599369741,-0.007410205196571025,-49.07414770071137,54.634396766018334,5.0678508559009225,-1656330.9759421845,5094450.485949813,3595092.21398177,-224.83214672696835,-5260.568237237127,7319.293798005545,0.9947283105773781,-1.5944278176296876e-05,0.0001512169154535404,0.10254542903074619
0.54,-1.1476930824921056e-05,0.0005885907117988204,-0.0074116354714115745,-49.083490005045604,54.62516260500944,5.073295238758481,-1656332.0993216692,5094424.183098335,3595128.8109368086,-224.51964720840743,-5260.572354192593,7319.488217427024,0.9947302099008771,-1.6099089806078748e-05,0.00015260618456400455,0.10252700113984059
0.545,-2.9850934456751834e-06,0.000569019978750747,-0.007419297559868589,-49.07686078265373,54.60421508391899,5.063333682984408,-1656333.2211386263,5094397.880226406,3595165.4088638923,-224.2071355995263,-5260.57641716494,7319.6826161904,0.9947321092359184,-1.6281324682783594e-05,0.00015406666690357952,0.10250856965854915
0.55,-2.8101628385910828e-06,0.0005577827659152988,-0.007402278475663934,-49.06628118817314,54.59506227625466,5.053780807166529,-1656334.3413931776,5094371.577334131,3595202.007762726,-223.8946849513282,-5260.58049290072,7319.876917190778,0.9947340101984621,-1.643742932714403e-05,0.00015548065600186011,0.10249011908502491
0.555,-7.659971610837866e-06,0.0005497676896067452,-0.007396355721259125,-49.06132276578245,54.583546570182115,5.05834407248587,-1656335.4600856202,5094345.274421361,3595238.607632951,-223.58229206306325,-5260.584614912659,7320.07117276793,0.9947359064612457,-1.6590213068717026e-05,0.00015686674547301952,0.10247171080016615
0.56,-9.592821548165959e-06,0.0005549585202389486,-0.0074174989103937975,-49.06171688588493,54.5741751110662,5.065158823963633,-1656336.5772162357,5094318.971488047,3595275.208474403,-223.26995412985755,-5260.588710583645,7320.265408026757,0.994737800867392,-1.675300188272697e-05,0.00015823166050485437,0.10245331721122203
0.5650000000000001,6.170223592593455e-06,0.0005809334867480708,-0.007409378703185444,-49.059939188799376,54.55405444021088,5.060160198930716,-1656337.6927852365,5094292.668534359,3595311.8102870067,-222.95764616054916,-5260.592764945335,7320.459633428357,0.9947397003438939,-1.69219352965545e-05,0.00015960898831799889,0.1024348710076756
0.5700000000000001,-8.704912516698156e-06,0.0005581572064467128,-0.007430338656182288,-49.05760412972466,54.537328387029774,5.068634262889174,-1656338.8067928075,5094266.365560436,3595348.4130705255,-222.64538225829776,-5260.5968044476695,7320.653774177633,0.9947415973875228,-1.7058317003250508e-05,0.00016105494895926086,0.1024164449550793
0.5750000000000001,-1.2502275677013223e-05,0.0005473102438619065,-0.0074158262734337925,-49.05393468082683,54.52589471094707,5.051337505016023,-1656339.9192392032,5094240.062566462,3595385.0168246664,-222.3331760410769,-5260.600784846473,7320.847882210567,0.994743499461999,-1.722586777079647e-05,0.00016244045872090745,0.10239796674965251
0.58,8.17904044030777e-06,0.0005600560018193871,-0.007394906929135762,-49.0475545659884,54.5113107978977,5.056602148783521,-1656341.0301246203,5094213.759552443,3595421.621549142,-222.02099082974917,-5260.604822634502,7321.041908066844,0.9947453974811415,-1.7400079377389382e-05,0.00016379802208180716,0.10237952460102068
0.585,-1.376094968330145e-05,0.000572288712461647,-0.007383410479286178,-49.049350041102066,54.493860118922235,5.049217208000992,-1656342.139449281,5094187.4565183185,3595458.227243673,-221.7088733940695,-5260.608827240742,7321.235904305084,0.99474728979883,-1.7526113063169278e-05,0.00016519257661469099,0.10236113443163254
0.59,1.3914837075593446e-06,0.000551473846876284,-0.007382190072587009,-49.0403756831901,54.48302337906304,5.04625823592051,-1656343.2472134046,5094161.153464188,3595494.8339079763,-221.3967760864954,-5260.61282509689,7321.429817019633,0.9947491788270814,-1.7709834244736988e-05,0.00016661193822828962,0.10234277282578935
0.595,8.425935594380503e-06,0.0005426763466051926,-0.007391296157816287,-49.04374239100256,54.47363065020359,5.0490405079651355,-1656344.3534171968,5094134.850390035,3595531.441541755,-221.08474080789338,-5260.616836030905,7321.6236944872835,0.994751067211588,-1.7850547107575464e-05,0.00016798341276783632,0.10232441421448639
0.6,-4.362518629046938e-06,0.0005669805113707914,-0.007382879114715392,-49.04378992119742,54.45664773282757,5.046132080932744,-1656345.4580608415,5094108.547295907,3595568.050144862,-220.77271701540604,-5260.620815350025,7321.817548209947,0.9947529575884442,-1.797151946951039e-05,0.0001693348080268751,0.10230603291981528
0.605,1.0275153090349882e-05,0.0005629007507217859,-0.007398148450073811,-49.04520988692856,54.43479925163879,5.045983028064208,-1656346.561144449,5094082.244181931,3595604.659717068,-220.46072604914707,-5260.624774942331,7322.011334277891,0.9947548454604689,-1.81305078003913e-05,0.00017074337436540814,0.10228767252657318
0.61,1.2542213350454868e-05,0.0005777631926082104,-0.007413820683226834,-49.03603345173844,54.41413875703085,5.050011443935299,-1656347.6626681995,5094055.941048268,3595641.2702580024,-220.14877411798906,-5260.628689953434,7322.205039501139,0.9947567368979929,-1.8252057132669002e-05,0.0001721455371824551,0.10226927411903211
0.615,-4.977485128873455e-06,0.0005403000767734453,-0.007366192018478636,-49.02650095078717,54.3962584998039,5.037749571691636,-1656348.7626324145,5094029.637895123,3595677.8817673246,-219.83691190131154,-5260.63256841549,7322.398689333479,0.9947586319931637,-1.8371775197607136e-05,0.00017358524013701162,0.10225083669942206
0.62,-2.6904581373655376e-05,0.0005450811881597651,-0.007392493009509122,-49.02659312370256,54.38560358977744,5.033644990731832,-1656349.861037482,5094003.3347224975,3595714.4942446724,-219.52511507475506,-5260.636481631344,7322.592249833235,0.9947605145871239,-1.8525465678034558e-05,0.00017492729981532804,0.10223251770159779
0.625,-7.081966838262038e-06,0.0005457361147989225,-0.007400479806552087,-49.015869507529665,54.36781285549613,5.044699021151768,-1656350.9578836143,5093977.031530308,3595751.1076897094,-219.21333781955278,-5260.640394206712,7322.785764928819,0.9947624035596259,-1.8734920140519836e-05,0.00017627564421211019,0.10221413327019022
0.63,2.6656196487032936e-05,0.000555800404797474,-0.007390971501062138,-49.018349133895605,54.35554980675748,5.03967440050977,-1656352.0531711113,5093950.728318691,3595787.722102265,-218.90166097668083,-5260.644252330395,7322.979257173265,0.9947642942316903,-1.889524849395799e-05,0.0001776306822936148,0.10219572893246295
0.635,-1.0626502864292099e-05,0.0005841796074455985,-0.007376312325219314,-49.01556509811155,54.342792175418786,5.0336050938699115,-1656353.1469002506,5093924.425087798,3595824.33748214,-218.58999476634324,-5260.648104883563,7323.172692944995,0.9947661821296552,-1.89742401365455e-05,0.0001790193694945392,0.10217734819045479
0.64,7.679111656831117e-06,0.0005531001225174614,-0.007374247603499905,-49.00604290084368,54.31934946847767,5.040537939981708,-1656354.2390711433,5093898.1218376225,3595860.953829052,-218.27836233198832,-5260.6519656078535,7323.3660717630055,0.9947680659275818,-1.915319341233963e-05,0.00018046911038875708,0.10215900388489357
0.645,-1.2066743125710053e-06,0.0005739887543490619,-0.0073671910550256285,-49.00829017586988,54.3136758073258,5.036604780753827,-1656355.3296841239,5093871.818568277,3595897.5711427117,-217.96682988519947,-5260.655772632517,7323.559392263512,0.9947699488728815,-1.9278683525108364e-05,0.00018184623433070755,0.10214066467242222
0.65,-4.506018160540045e-06,0.0005533803685430638,-0.0074065123976548115,-48.99590088161645,54.290727576167846,5.038970098264322,-1656356.418739445,5093845.515279882,3595934.1894229082,-217.6552985455299,-5260.6595852899345,7323.752686262078,0.9947718296666087,-1.9431602652257112e-05,0.00018327303800848676,0.10212234297720527
0.655,-4.234018481783411e-06,0.0005253602760096895,-0.007372956575696684,-48.984890838689445,54.27490891743123,5.029521076312242,-1656357.5062373744,5093819.211972496,3595970.808669408,-217.3438732664477,-5260.66336925464,7323.9459135705765,0.9947737201673568,-1.9587483583276417e-05,0.00018464774576726247,0.10210392346006089
0.66,8.966406187067432e-06,0.0005507045627157063,-0.007365403262035465,-48.99705531543217,54.26474159156204,5.0364984514715205,-1656358.5921783573,5093792.90864611,3596007.428881864,-217.0325198117918,-5260.667184646301,7324.139068955768,0.9947756017742708,-1.9735520168768322e-05,0.00018595284040723523,0.1020855873602535
0.665,1.157499245044558e-05,0.0005599531937172238,-0.007384358066835055,-48.99047517288961,54.23923935170601,5.027954383732377,-1656359.6765625195,5093766.6053008195,3596044.050060041,-216.72114514297772,-5260.670932033674,7324.332201736166,0.9947774811029098,-1.985719280125535e-05,0.00018732433398432416,0.10206727000285615
0.67,6.3572549713926204e-06,0.0005555472413656417,-0.007369895823943169,-48.98255114099746,54.22782298352603,5.036504030705108,-1656360.7593899851,5093740.301936799,3596080.6722036004,-216.4098411202166,-5260.67467594067,7324.525222046711,0.994779364923936,-1.9974746852715328e-05,0.00018871949300923807,0.10204890546935297
0.675,5.083941429017496e-06,0.0005167340474115158,-0.007394260529803775,-48.978922293497014,54.216587174673926,5.028854303388794,-1656361.8406611134,5093713.99855415,3596117.2953122454,-216.0986101854196,-5260.678384014776,7324.7182360158395,0.9947812447168436,-2.010414626144352e-05,0.0001901023641545923,0.10203057687047441
0.68,3.7729473222508554e-06,0.0005485616982621697,-0.00737622697244642,-48.97876415654187,54.193479364991084,5.023377555676599,-1656362.9203761688,5093687.69515291,3596153.919385824,-215.78741197215626,-5260.682111687359,7324.9111954409955,0.9947831304023885,-2.0226823582412753e-05,0.00019138838262451233,0.10201218764533604
0.685,-1.868001738273341e-05,0.0005391086210642722,-0.007387735591372882,-48.971096774158326,54.17412096114691,5.024121378508083,-1656363.998535337,5093661.39173309,3596190.544423951,-215.4762552179344,-5260.685816136912,7325.104055294274,0.9947850111326576,-2.0360869675697893e-05,0.00019275322162267485,0.10199384323295635
0.6900000000000001,-2.255653353387868e-07,0.000560642829624414,-0.007381758263137308,-48.96464889297964,54.16963430647695,5.02058619254922,-1656365.0751389118,5093635.088294808,3596227.1704262253,-215.16517474874797,-5260.689496805272,7325.296854494976,0.9947868944602104,-2.0548350600494817e-05,0.00019408882535984972,0.10197547017544727
0.6950000000000001,-1.3417780929492835e-05,0.0005507569309517278,-0.0073440057140715335,-48.95748275480456,54.14708870533681,5.017497631042267,-1656366.1501871804,5093608.784838061,3596263.797392463,-214.85413267286228,-5260.693202157395,7325.489640406261,0.9947887759134646,-2.069542290292542e-05,0.00019548268896226785,0.10195711193834664
0.7000000000000001,5.068482823636029e-06,0.000554994440364708,-0.007360149089277484,-48.95499448065637,54.12491576634541,5.019952647220797,-1656367.2236804257,5093582.481362829,3596300.4253224176,-214.54316549145975,-5260.696890496824,7325.682341596263,0.9947906474090331,-2.0872765574182393e-05,0.00019684860589823575,0.1019388475629921
0.705,-1.635529434726982e-05,0.0005718818930493385,-0.007358492883902057,-48.95568020167788,54.11244591745604,5.0168532076715895,-1656368.295618986,5093556.177869275,3596337.0542156994,-214.23225863580527,-5260.700531196758,7325.874971085979,0.9947925226796003,-2.1005221194204632e-05,0.00019822977168281933,0.1019205429954892
0.71,1.513920800193614e-05,0.000570295276488881,-0.007350316927687763,-48.933970047598855,54.09365287715771,5.0120848284532995,-1656369.3660030656,5093529.874357542,3596373.6840720023,-213.9213732083599,-5260.704161846617,7326.067550096948,0.9947943971799601,-2.1195259465509224e-05,0.0001996474774585183,0.10190224252196624
0.715,1.604478588634033e-05,0.0005548808469253332,-0.007356770883866773,-48.93617004217093,54.073844510319944,5.019404467098966,-1656370.4348330458,5093503.570827587,3596410.3148910454,-213.61061886030143,-5260.707820539664,7326.260067087475,0.9947962692615948,-2.130656306317673e-05,0.00020106926110742776,0.10188396233164092
0.72,-1.2671540716724277e-05,0.0005469138306463078,-0.007338709094826302,-48.934849451706576,54.0504401136578,5.01878737867854,-1656371.5021093574,5093477.267279514,3596446.946672542,-213.29990579839213,-5260.711408153822,7326.452531675586,0.9947981426567353,-2.1411691526162978e-05,0.00020245293946130903,0.10186566605611752
0.725,-2.8401854344304675e-06,0.0005519656399082274,-0.007347959614062871,-48.93250548335771,54.04509007917134,5.0201910909430145,-1656372.5678322373,5093450.963713607,3596483.5794161465,-212.9892461181254,-5260.714954981064,7326.644910021368,0.9948000111171141,-2.158619929759187e-05,0.00020380949176150218,0.10184741468057416
0.73,-9.975163845464043e-07,0.0005469132037787257,-0.007361802374980872,-48.921942149460435,54.01666467855413,5.01133768371303,-1656373.6320018882,5093424.660129978,3596520.213121626,-212.67861428944693,-5260.718496533801,7326.837281871554,0.9948018815936495,-2.1737547478339382e-05,0.00020518111058848718,0.10182914025918946
0.735,1.8704510582729016e-05,0.0005571260458305746,-0.007382238206815045,-48.914577572088554,54.00343929049845,5.001864775307007,-1656374.6946186135,5093398.3565286435,3596556.8477886603,-212.36807575350164,-5260.722037246824,7327.029531789229,0.9948037552586586,-2.1883033812850557e-05,0.00020654063225453324,0.10181083137550319
0.74,-1.7991505232149772e-06,0.0005658996839337831,-0.007352823213111614,-48.920813434225714,53.98730024445199,5.003527705455203,-1656375.7556827725,5093372.052909531,3596593.483416782,-212.057587880882,-5260.725607829342,7327.22171706971,0.9948056337811464,-2.1982131010884413e-05,0.00020793056686543924,0.10179247162220349
0.745,1.2945416982011886e-05,0.000563507193604283,-0.007349030368576251,-48.90856961590591,53.9707274351512,5.004273183908514,-1656376.8151945155,5093345.749272686,3596630.120005689,-211.74710930598556,-5260.7291297775155,7327.413845664712,0.9948075044729304,-2.2134438530378818e-05,0.00020933710538759685,0.10177418499984936
0.75,-1.258567215330147e-05,0.0005519710969815719,-0.007355426357080734,-48.89095336575083,53.95050957885521,4.998662202678084,-1656377.8731540947,5093319.445618253,3596666.7575551253,-211.4367224166856,-5260.732643636496,7327.605928695046,0.994809373863793,-2.2249465306998634e-05,0.00021074144542103805,0.10175590776821195
0.755,-1.0056094323087232e-05,0.000554923981890341,-0.007329567162517581,-48.89924903690486,53.93406733376356,4.999026100681832,-1656378.9295620252,5093293.141946201,3596703.3960647923,-211.12644972611412,-5260.736177115496,7327.7979380899405,0.99481124454836,-2.242505719783534e-05,0.00021211059963658163,0.10173761460911843
0.76,-1.1512801011128286e-06,0.00054154664644517,-0.007328842008891954,-48.894451214760984,53.9067785083433,5.000711962010373,-1656379.9844185894,5093266.838256603,3596740.035534348,-210.81617593424602,-5260.739662158458,7327.98988414875,0.9948131083172616,-2.2595095286041786e-05,0.0002134877425207967,0.10171938572658619
0.765,1.2079885448690665e-05,0.0005475294184869793,-0.007357968400303653,-48.89054547465644,53.899083341227275,5.007061732682328,-1656381.0377239815,5093240.5345497085,3596776.675963402,-210.50598100765131,-5260.743095546007,7328.181737479673,0.9948149715735397,-2.273958457894674e-05,0.00021483387998284315,0.10170115860919605
0.77,-1.7077215561887495e-06,0.0005725424104594107,-0.007330206266733236,-48.88310377705587,53.8770763273024,5.000865782906191,-1656382.0894785128,5093214.230825715,3596813.3173517203,-210.1958314887554,-5260.746501959375,7328.373589908644,0.9948168418956931,-2.285270424065797e-05,0.0002161982591564397,0.10168285901146841
0.775,-5.061761956880052e-06,0.0005584898650775821,-0.007320562612126364,-48.879706723308026,53.868385969577794,4.993934229172217,-1656383.139682474,5093187.9270846965,3596849.9596990733,-209.88575303666403,-5260.749905319275,7328.565351262587,0.9948187048089037,-2.3006457729823736e-05,0.0002176213432987819,0.10166462843088236
0.78,4.673012440685803e-06,0.0005523763854186658,-0.007337261329588187,-48.86450142273212,53.853045670721194,4.990775069456168,-1656384.188336113,5093161.623326607,3596886.6030051266,-209.575702482146,-5260.7533306964115,7328.757070127907,0.9948205649428861,-2.316497600281575e-05,0.00021900862611670194,0.10164642180284944
0.785,-1.658441160640374e-05,0.0005600261912353926,-0.0073258480122798345,-48.86753573967905,53.82613442675405,4.988734757940634,-1656385.2354397431,5093135.31955135,3596923.247269652,-209.26574959136337,-5260.756772225016,7328.948739916746,0.9948224289883055,-2.3297738993166107e-05,0.00022038317711785537,0.10162817360495235
0.79,-7.256088298350501e-06,0.000535438016578548,-0.007324428569264051,-48.8562136854096,53.808321591693876,4.985477075833835,-1656386.2809937047,5093109.015759015,3596959.8924922557,-208.95583498160835,-5260.760161547295,7329.1403015358965,0.9948242897923525,-2.3485307682347987e-05,0.0002217713533223715,0.10160995376954338
0.795,-1.5231191071050009e-05,0.000549709994828544,-0.0073358737838059825,-48.84697549023354,53.7824556680326,4.990083940132632,-1656387.3249983045,5093082.711949727,3596996.5386725105,-208.6460049658548,-5260.763553780879,7329.331800506746,0.9948261499145137,-2.364342946198779e-05,0.0002231007468782068,0.10159173742638047
0.8,-1.702248454994731e-05,0.0005419374557106037,-0.007324109127003018,-48.85282593543285,53.76965268352982,4.982204644269046,-1656388.367454004,5093056.408123604,3597033.185810073,-208.33627483707346,-5260.766895200481,7329.52322436756,0.9948280125991775,-2.3825017006846685e-05,0.0002244636095137652,0.10157349258752177
0.805,5.100401588578973e-07,0.0005648696965623382,-0.007321991483381971,-48.83493532688297,53.75120951576817,4.987358965778951,-1656389.4083610345,5093030.104280781,3597069.83390458,-208.02653734681354,-5260.770233994827,7329.714578626585,0.9948298719647307,-2.4009079304280668e-05,0.00022580668705531935,0.10155527697535832
0.81,1.091169645626217e-05,0.0005295873851751681,-0.007330071313844188,-48.82777836811203,53.73007595464464,4.98310062147508,-1656390.4477196923,5093003.80042131,3597106.4829557682,-207.71692579926759,-5260.773554584632,7329.905896667725,0.9948317304454037,-2.4155357925082437e-05,0.00022721125014444328,0.10153706658442617
0.8150000000000001,-9.87883936623933e-06,0.000533434623445838,-0.007328696360639276,-48.827040292856296,53.718966200294254,4.984267187877346,-1656391.485530469,5092977.496545259,3597143.1329633407,-207.40738488184087,-5260.776865825724,7330.097132290656,0.994833590662179,-2.4266815226977105e-05,0.00022853070314594247,0.10151883606028676
0.8200000000000001,-6.24083041481878e-06,0.0005502180294064114,-0.007326088288530965,-48.81709251764627,53.696976795061616,4.987177600867994,-1656392.5217936179,5092951.192652704,3597179.7839270113,-207.0978746636011,-5260.780156166076,7330.2883359812195,0.9948354501907642,-2.4430955961517975e-05,0.00022985444798088634,0.10150060893315206
0.8250000000000001,2.038180667227983e-05,0.0005665195428851633,-0.00733796952497313,-48.82311668020978,53.67432574892219,4.96639093051841,-1656393.5565094503,5092924.8887437815,3597216.435846542,-206.78845830575492,-5260.783412708612,7330.479476131131,0.994837308712465,-2.4590305953250514e-05,0.00023122085786593996,0.10148238825516173
0.8300000000000001,3.3432370528011345e-06,0.0005641315426930327,-0.007321134957533013,-48.80292352564603,53.66105098572554,4.966673744302609,-1656394.5896781837,5092898.584818514,3597253.088721408,-206.47903501009503,-5260.7866945334445,7330.670470447473,0.9948391699045225,-2.4687585614379247e-05,0.00023263456464891878,0.10146413797674153
0.835,1.4018448904803192e-05,0.0005681922464567047,-0.007309786265504249,-48.792959900265956,53.63092026617778,4.9687206602787715,-1656395.6213001022,5092872.280876793,3597289.742551179,-206.16973240689697,-5260.78999385549,7330.861437862938,0.9948410264906342,-2.4826626326596977e-05,0.0002340380111925661,0.10144592954332496
0.84,3.737089364160559e-08,0.0005441958136563367,-0.007321941669413052,-48.789863034358184,53.614256509657984,4.965065029529483,-1656396.6513757764,5092845.976918698,3597326.3973355396,-205.86053732746927,-5260.793244086951,7331.052306291676,0.994842879862093,-2.4940139898276088e-05,0.00023545426514056338,0.10142774929463694
0.845,1.899534514579201e-05,0.0005455011085677917,-0.007288596341471664,-48.78286317283907,53.594362619657446,4.969505107293367,-1656397.679905588,5092819.672944376,3597363.053074077,-205.55138734434894,-5260.79648445454,7331.243108717298,0.9948447359943315,-2.508234829602226e-05,0.00023680729137748007,0.10140953878975725
0.85,-7.805694249509915e-06,0.0005555351136127937,-0.0072846884860040565,-48.76739777998454,53.57223947769311,4.965146071517845,-1656398.7068898468,5092793.368953956,3597399.7097664936,-205.2423161617738,-5260.7996837005385,7331.4338579100895,0.9948465833394777,-2.5177717265480042e-05,0.00023816837233891144,0.1013914111731193
0.855,9.833141780643028e-06,0.0005492816677214874,-0.007307049905004921,-48.75967391299611,53.552876707683474,4.973009867078422,-1656399.7323290233,5092767.064947525,3597436.3674124563,-204.93335443984213,-5260.80288869904,7331.6245272507695,0.9948484293543846,-2.5342284610720736e-05,0.00023954761571791017,0.10137329325726083
0.86,-1.216421263938662e-05,0.0005574336724828459,-0.007315926367837103,-48.7576998149973,53.54042428749362,4.966794739240349,-1656400.756223605,5092740.760925199,3597473.0260116635,-204.6244781612407,-5260.806041733464,7331.815155642316,0.99485028070841,-2.5461410587233726e-05,0.00024091577479022083,0.1013551196817599
0.865,-1.1777459246469333e-05,0.0005519530900206332,-0.007291839537926101,-48.75603685087022,53.50981695928036,4.9625124200468065,-1656401.7785738779,5092714.456887089,3597509.6855638702,-204.31563102831456,-5260.809202349208,7332.005727002559,0.9948521339710169,-2.5637317705482835e-05,0.0002422986344158964,0.10133692400805196
0.87,-4.028456831567986e-06,0.000542346922967907,-0.007317054683283203,-48.746122200100075,53.49514607174124,4.952551273283651,-1656402.7993800726,5092688.152833281,3597546.3460686198,-204.00684689526432,-5260.812320686062,7332.1961727675425,0.9948539808011396,-2.581085985510352e-05,0.00024366796256222772,0.10131878820756386
0.875,-3.463274794791482e-06,0.0005459901758457929,-0.007299535884525036,-48.74978913411587,53.48603581843197,4.957128010015617,-1656403.8186425066,5092661.848763798,3597583.007525423,-203.69812667275374,-5260.815472569222,7332.386548609021,0.9948558336909188,-2.596271132861767e-05,0.0002450153599647908,0.10130058965552947
0.88,-1.5931905431310457e-05,0.0005484280690422852,-0.007299573331076137,-48.73118929356374,53.45449519947959,4.953718510665854,-1656404.8363613687,5092635.544678653,3597619.669934061,-203.3894181090942,-5260.818585616444,7332.576906453139,0.9948576818078969,-2.6114069035025757e-05,0.00024637196283382976,0.10128243464060656
0.885,1.0828586321768765e-05,0.0005369278451132542,-0.007314418171896412,-48.7229154120868,53.43157319310636,4.9519345327760504,-1656405.852537042,5092609.240577974,3597656.3332942054,-203.08085124090582,-5260.821685516174,7332.767151448685,0.994859529598869,-2.6297055327571767e-05,0.00024773147187668156,0.10126427950615041
0.89,7.3033549267871905e-06,0.0005449452677287269,-0.007287381172256008,-48.71887147447691,53.41340201098338,4.949865443450187,-1656406.867170086,5092582.93646185,3597692.9976053704,-202.77236629940538,-5260.824764450828,7332.957314510088,0.9948613808230345,-2.6410582074815152e-05,0.00024906915179684125,0.10124608740056985
0.895,-4.364781015731229e-06,0.0005454922163997629,-0.007286761144863703,-48.706355766082424,53.3860304474458,4.954048491473449,-1656407.88026084,5092556.632330375,3597729.6628671833,-202.4639353944803,-5260.82782575604,7333.147410626036,0.9948632248652451,-2.653488910111462e-05,0.0002504258816893456,0.10122796250790708
0.9,9.725775801659313e-06,0.0005591173326685118,-0.007303978223789428,-48.69615928891051,53.373684464184585,4.954157380518382,-1656408.8918097313,5092530.328183708,3597766.3290792773,-202.1556211038223,-5260.830841028958,7333.337426953468,0.9948650684174014,-2.668835464501404e-05,0.0002517810190331305,0.1012098391308351
0.905,-4.085978576503005e-06,0.0005375537357317159,-0.007264062092857715,-48.694535683348455,53.35307148140026,4.94871382490535,-1656409.9018172359,5092504.0240219645,3597802.9962413725,-201.84738068523657,-5260.833856037442,7333.527411160778,0.9948669159854361,-2.681023299994393e-05,0.00025317360828198596,0.10119167288844919
0.91,1.535906052516617e-05,0.0005443119990439336,-0.007278568957263051,-48.68293909335468,53.33106960977035,4.947179739317946,-1656410.9102836463,5092477.719845184,3597839.664353168,-201.53918351273808,-5260.836856110152,7333.717307047223,0.9948687531364663,-2.696098308424594e-05,0.0002545090737625341,0.10117360590059941
0.915,-1.2568608738864365e-05,0.0005469376541628617,-0.00729915246823455,-48.672129233073235,53.30803784992269,4.951021340971098,-1656411.9172093095,5092451.415653436,3597876.333414256,-201.23108176943705,-5260.839843092997,7333.907128139321,0.9948705936232113,-2.7065088630071343e-05,0.00025586626545500807,0.10115550278523855
0.92,2.0664406625203698e-06,0.0005322455220149485,-0.0072562102837768205,-48.67097313906949,53.29181006021575,4.940451089392808,-1656412.9225947156,5092425.111446849,3597913.003424288,-200.9230806997161,-5260.842791806792,7334.096884662353,0.994872438979529,-2.7239332374330205e-05,0.0002572229235434108,0.10113734845896316
0.925,-2.858323038230696e-06,0.000582346671571733,-0.007283522300741605,-48.65807706834275,53.268132066567595,4.9429732000657705,-1656413.926440183,5092398.807225483,3597949.6743828896,-200.6151062580291,-5260.845754909089,7334.286555906514,0.9948742731574988,-2.737343366878197e-05,0.0002585467428523586,0.10111930089560277
0.93,9.873335349811165e-06,0.0005387848658358538,-0.007276500353904753,-48.64897325337073,53.24450800864831,4.932998074974528,-1656414.9287460519,5092372.502989376,3597986.3462896743,-200.30724127734405,-5260.848687730436,7334.476157952322,0.9948761138766163,-2.753246689253231e-05,0.00025999392609655126,0.10110118536834099
0.935,-1.5686919741126558e-06,0.0005326223371757107,-0.007246815964915692,-48.64823055227104,53.218820920634904,4.93412613479189,-1656415.9295127867,5092346.198738577,3598023.019144201,-199.9994526543875,-5260.851631857821,7334.665652973985,0.9948779525186058,-2.7648819110408624e-05,0.0002613359812018238,0.10108308726703245
0.9400000000000001,3.678256954014871e-06,0.0005484006554156961,-0.0072506117161399465,-48.63191187973103,53.20661697732443,4.9314619180183845,-1656416.9287407205,5092319.894473193,3598059.6929459753,-199.69172084334284,-5260.854521667472,7334.855056649742,0.9948797833326853,-2.7792053158360283e-05,0.0002626598193739897,0.10106506297099004
0.9450000000000001,8.328314473603158e-06,0.000552065861995857,-0.00726643314329494,-48.624043289471196,53.175737052172735,4.924571753358073,-1656417.9264302386,5092293.590193301,3598096.367694682,-199.38408647361834,-5260.857434954844,7335.044426034327,0.9948816147672785,-2.79262260728977e-05,0.0002640242267283262,0.10104702919624126
0.9500000000000001,-7.062311312547975e-06,0.0005524535828121827,-0.0072513568880324996,-48.623371368423435,53.1560146649914,4.9277910928705015,-1656418.9225818047,5092267.285898893,3598133.043389913,-199.07653990628648,-5260.860328184296,7335.233666458766,0.9948834498670615,-2.8049769675040667e-05,0.00026539892369348766,0.1010289560335849
0.9550000000000001,-3.4789064500950428e-06,0.0005572508276729941,-0.007280456827753526,-48.60408089323579,53.14443049614462,4.922994873107632,-1656419.9171957588,5092240.9815901425,3598169.7200311935,-198.76904174367567,-5260.863172358902,7335.422845533309,0.9948852808281275,-2.8211680889604167e-05,0.00026677069872337413,0.1010109203454414
0.96,-1.075532290730296e-05,0.0005505997037152537,-0.007253456156025609,-48.609310238373595,53.11205650123542,4.918278381431792,-1656420.9102724893,5092214.677267072,3598206.3976182807,-198.46165049380932,-5260.8660559086375,7335.611989343452,0.9948871188045894,-2.8365910245750404e-05,0.0002681553082906353,0.10099281224329147
0.965,1.2504474171921501e-06,0.0005348521529860731,-0.00725793153222751,-48.59128545751076,53.09332690778125,4.924759098247642,-1656421.9018123501,5092188.37292973,3598243.0761507372,-198.1542937998192,-5260.868880571497,7335.800993338612,0.9948889496375334,-2.8536540234747974e-05,0.00026952153972534796,0.10097477126951555
0.97,-3.15912651757547e-05,0.000536055981820444,-0.007269111456811337,-48.58000547929644,53.07015105771212,4.92028880683883,-1656422.8918157488,5092162.068578326,3598279.7556281295,-197.84706568248833,-5260.871681174429,7335.989963525314,0.9948907812825126,-2.8673336946058035e-05,0.0002708516337908583,0.10095671912410788
0.975,8.876058509003843e-06,0.0005626754528746227,-0.007238897536458434,-48.57940218010363,53.049003798411036,4.923718658097211,-1656423.8802832377,5092135.764212931,3598316.4360501524,-197.53992985191562,-5260.87447684969,7336.17884561411,0.9948926154162001,-2.8892129847301386e-05,0.00027217643218181166,0.10093863916037123
0.98,2.401626261875293e-05,0.0005544220332070356,-0.007264501227636283,-48.56518602935849,53.02369229510233,4.912903947789662,-1656424.8672151745,5092109.459833691,3598353.117416419,-197.23284490715864,-5260.877219273089,7336.367661050337,0.9948944415812362,-2.901696790933976e-05,0.00027357765324449604,0.1009206342828043
0.985,-1.8615242941031344e-05,0.0005230352304801713,-0.007265400040800215,-48.5574726921671,53.00275678827004,4.918865254908891,-1656425.8526119397,5092083.155440685,3598389.7997264825,-196.92586110860697,-5260.879982827146,7336.556364406938,0.9948962738839326,-2.9102083860131913e-05,0.00027496216405350956,0.10090256567968928
0.99,1.846517775827187e-05,0.0005412998846787544,-0.007256107325677172,-48.5503704969281,52.98569023957195,4.9021314109975584,-1656426.8364739998,5092056.851033983,3598426.482979931,-196.61896295975194,-5260.882698120953,7336.7450149935485,0.9948981061018369,-2.928531771190377e-05,0.0002762578541024975,0.1008844948391299
0.995,9.88483142483667e-06,0.0005434429619529941,-0.007256556265329094,-48.53765953425834,52.95543799770606,4.905875692617333,-1656427.8188016862,5092030.5466135815,3598463.16717638,-196.31211159037974,-5260.885462298062,7336.933564496035,0.9948999356365407,-2.938092358624721e-05,0.00027760832551377256,0.10086644705146619
1.0,-1.5860681333638573e-05,0.0005625021754174739,-0.007244803204126045,-48.53331519368193,52.94395322350237,4.905523122733928,-1656428.7995954207,5092004.242179487,3598499.8523153444,-196.00538219019072,-5260.888175814915,7337.122021314585,0.9949017649530925,-2.949841163896043e-05,0.0002789619634961837,0.10084839811959528
1.0050000000000001,7.844234689067277e-06,0.000555155454705719,-0.007246626142085894,-48.52207107729683,52.916569024929906,4.913477497499012,-1656429.7788556216,5091977.937731845,3598536.5383965056,-195.6986981775757,-5260.890880743561,7337.310443248979,0.9949035909624547,-2.968473235335398e-05,0.00028035651638162523,0.1008303784037978
1.01,9.437551244991956e-06,0.0005514578706040402,-0.007242503103025935,-48.504804483813054,52.88168603044249,4.90260479017506,-1656430.7565826913,5091951.633270838,3598573.2254196005,-195.39212976981855,-5260.893521991036,7337.498794671007,0.9949054171098463,-2.9810242138877197e-05,0.00028173877128132995,0.10081235410453004
1.0150000000000001,2.198271187124882e-05,0.0005519089742162753,-0.007246970549793198,-48.495019040477835,52.8709092785738,4.906597742106797,-1656431.732777249,5091925.328796611,3598609.913384081,-195.08569331205962,-5260.896168865762,7337.686997484852,0.9949072418925714,-2.9930854106937932e-05,0.00028311223109420076,0.10079434002623854
1.02,2.1028398492903056e-05,0.0005407595916937578,-0.007247251982428832,-48.48629634212085,52.84489442595252,4.902637254148391,-1656432.7074398096,5091899.024309183,3598646.602289537,-194.77933092519785,-5260.898802767643,7337.875184933966,0.9949090674733869,-3.002037972092695e-05,0.00028448997369796597,0.10077631479403991
1.025,2.0099727700569442e-05,0.0005324633595896068,-0.007240204694922647,-48.48058146228752,52.82404191870732,4.893662339201974,-1656433.6805707747,5091872.719808631,3598683.292135679,-194.47305507029418,-5260.901417876392,7338.063272023388,0.9949108928045229,-3.01094701785475e-05,0.0002858397442018091,0.10075828883008853
1.03,-9.345415312883623e-06,0.0005635630236706744,-0.0072252410164958345,-48.4716883986393,52.802629397514,4.892740889268472,-1656434.6521705037,5091846.415294987,3598719.9829220176,-194.1668365185404,-5260.904039646889,7338.251263187402,0.9949127160382641,-3.0198775666589164e-05,0.00028716864618445005,0.10074028036275794
1.035,-5.674561162464911e-06,0.0005364468863274546,-0.007238094251077866,-48.45521235575274,52.77648250151943,4.890105371378796,-1656435.622239347,5091820.110768284,3598756.6746481284,-193.86070085317357,-5260.9066415629795,7338.4391812904305,0.994914535151683,-3.0369141242172753e-05,0.00028856748705060904,0.10072230909997691
1.04,1.8992432592108575e-05,0.0005392715383479289,-0.007237967844541552,-48.451707353675026,52.75011690542882,4.891045450849084,-1656436.5907778202,5091793.806228592,3598793.3673136034,-193.55468838775448,-5260.909235032705,7338.627008580588,0.9949163571943844,-3.052355761504086e-05,0.0002898998055903676,0.10070430583381937
1.045,-9.19978318604236e-06,0.0005466376169080434,-0.0072197096587870505,-48.43601372586718,52.73143444373735,4.885263671280589,-1656437.557786406,5091767.501676057,3598830.0609179833,-193.2487459242364,-5260.911778914256,7338.814743407668,0.9949181788775292,-3.06173310338809e-05,0.00029124535995677823,0.10068630283082268
1.05,-2.2489679755037482e-06,0.0005664456237265003,-0.007233777612719693,-48.427140782384015,52.710385228403275,4.893027313692742,-1656438.523265535,5091741.197110754,3598866.7554608625,-192.9429056802027,-5260.91434227518,7339.002408293682,0.9949199956305037,-3.0783067676623196e-05,0.0002926021408138008,0.10066834522822167
1.055,2.0916806076973325e-05,0.0005489702656414338,-0.007198753676328499,-48.42181057256492,52.685692938958525,4.877733079109511,-1656439.487215696,5091714.892532768,3598903.4509419478,-192.637158683553,-5260.916852323454,7339.19002581282,0.9949218155833371,-3.093651093561248e-05,0.0002940099382649143,0.10065035259473573
1.06,9.993993347607177e-06,0.0005393596154977885,-0.00721603009236463,-48.41339328749602,52.66060535257171,4.879727843954623,-1656440.4496372577,5091688.5879421765,3598940.1473607966,-192.33146601778336,-5260.919384296168,7339.377513784963,0.9949236264121275,-3.102791085368342e-05,0.0002953801008993952,0.10063244702781565
1.065,2.9934006628700286e-05,0.0005358394554539758,-0.007206448813594437,-48.39195664466599,52.633387041834226,4.878555517415948,-1656441.4105305837,5091662.283339027,3598976.8447168847,-192.0258644001743,-5260.921875420013,7339.564921467182,0.9949254412687265,-3.114407407242092e-05,0.000296723609466636,0.10061449846506243
1.07,1.0905786039978281e-05,0.0005561921185018633,-0.007203742305095115,-48.39319544048804,52.612611409160095,4.870414896467557,-1656442.3698962748,5091635.978723438,3599013.543009794,-191.7204119908929,-5260.924359989938,7339.752242135181,0.994927253394287,-3.12097476593846e-05,0.0002980633785770267,0.10059657368655357
1.075,-1.8845904143129797e-05,0.0005498687894922598,-0.007197189666756883,-48.38065137918937,52.58487123255537,4.86779629762674,-1656443.327734771,5091609.674095454,3599050.2422390585,-191.41498654540317,-5260.9268337751555,7339.939463681142,0.9949290644978627,-3.1327866977902223e-05,0.00029944898591470454,0.10057865561975618
1.08,-1.675147366893066e-05,0.0005353258956589573,-0.007215630200482469,-48.37134821225572,52.563636764969814,4.856962618188189,-1656444.284046411,5091583.369455151,3599086.9424041794,-191.10966948978813,-5260.929287250792,7340.126584670847,0.9949308736319008,-3.1518393454143485e-05,0.0003008113845459312,0.1005607538414685
1.085,-7.404175163682482e-06,0.0005366595708151269,-0.007216569684194383,-48.35690159319629,52.53663985417358,4.874311107657448,-1656445.2388316449,5091557.06480253,3599123.6435046555,-190.80442401828165,-5260.93176111798,7340.313605833281,0.9949326870882603,-3.170006814308045e-05,0.0003021381352345358,0.10054280616228582
1.09,-1.5833862804832913e-08,0.0005494239469704317,-0.0072005895541509945,-48.35012203328782,52.52010626127504,4.865694825305417,-1656446.1920910042,5091530.760137774,3599160.345540137,-190.4993197412302,-5260.934141638575,7340.500586841506,0.9949345004549099,-3.1858828927892634e-05,0.00030347055255137815,0.10052485610622701
1.095,-2.268313156317485e-05,0.0005443947622643795,-0.007202236236133569,-48.34009472667514,52.492511060298405,4.856814737135757,-1656447.143824979,5091504.455461071,3599197.0485103326,-190.19427012568931,-5260.936539448543,7340.687491238935,0.9949363094715012,-3.200240813208724e-05,0.0003048365771172713,0.10050694575866984
1.1,-3.6850776721826787e-06,0.0005381201326115647,-0.007209101731918304,-48.3198491960171,52.47285718502509,4.863472328428643,-1656448.0940339274,5091478.150772381,3599233.752414751,-189.88930927735393,-5260.938936796856,7340.874276039784,0.9949381185795217,-3.220110620458199e-05,0.00030618439660371534,0.10048903130016533
1.105,4.183306222454316e-06,0.000533131123844614,-0.007207883458122124,-48.32367159770588,52.430955673968214,4.858386446208257,-1656449.0427184224,5091451.846071759,3599270.4572530044,-189.58448868663564,-5260.941311638503,7341.061025379449,0.9949399290939509,-3.235097847321372e-05,0.00030752138100707365,0.1004710997179711
1.11,-4.153998855843508e-06,0.0005466151335874895,-0.007189602404158332,-48.31058754393162,52.4158163070826,4.850954878171375,-1656449.9898789574,5091425.541359455,3599307.163024558,-189.27972530690406,-5260.9436098589185,7341.2475961629825,0.994941738981943,-3.248002524339216e-05,0.00030884793236142494,0.10045317112759458
1.115,-4.411616851743612e-06,0.000536573920520334,-0.007192510342291299,-48.28767546049451,52.38749261578271,4.85310005623282,-1656450.9355158801,5091399.236635589,3599343.8697288097,-188.97504385811928,-5260.945936776282,7341.4341045032825,0.9949435439438105,-3.2633181998700206e-05,0.00031020593083802366,0.10043528798130105
1.12,1.6519955510126448e-05,0.0005268646546867869,-0.0071702900885232965,-48.287014621752135,52.36026442253784,4.8502579191054735,-1656451.8796298008,5091372.931900136,3599380.5773654003,-188.67052439879197,-5260.948244466766,7341.62053173455,0.9949453493202074,-3.278446055662859e-05,0.0003115388881914314,0.10041739757029643
1.125,-4.765412194588894e-06,0.0005356529215271371,-0.0071976836583244,-48.264790719630156,52.342712285965696,4.856671218457239,-1656452.8222212587,5091346.62715325,3599417.2859338545,-188.3660587325024,-5260.9505095418945,7341.80684995513,0.9949471488051728,-3.2881219923302706e-05,0.0003128529515279124,0.10039956238108547
1.1300000000000001,-1.541778007200216e-05,0.000531290520015541,-0.007177322016345174,-48.25140230152628,52.31713546657205,4.851766059530797,-1656453.7632907508,5091320.322395072,3599453.995433835,-188.06173806760518,-5260.952761861794,7341.993142145443,0.9949489548345832,-3.303315108985919e-05,0.0003141835295596673,0.10038165903735241
1.135,2.835758079257242e-05,0.0005364151547767942,-0.0071803544230354,-48.25372210428475,52.29260709507889,4.8456371402138645,-1656454.7028389026,5091294.017625644,3599490.705865032,-187.757522666887,-5260.955009548495,7342.179336777227,0.9949507554336853,-3.321046789540393e-05,0.000315500584997987,0.10036380631674308
1.1400000000000001,-1.2416224370398184e-05,0.0005453782258065208,-0.007150450870128587,-48.23464924460708,52.27674737365738,4.84677126601354,-1656455.6408660556,5091267.712845051,3599527.4172269283,-187.4533385798141,-5260.95722765772,7342.365421670456,0.9949525564709921,-3.328018708073721e-05,0.0003168413706350161,0.10034594598593592
1.145,-9.849749381737895e-06,0.0005383084790698927,-0.0071825845401046,-48.21977693002421,52.23962369818136,4.8400612937104,-1656456.577372591,5091241.408053353,3599564.1295191576,-187.14927554487662,-5260.95945122645,7342.551470048338,0.9949543496749582,-3.3453551092433264e-05,0.00031819422451874344,0.10032816003583682
1.1500000000000001,-2.2228611074958888e-05,0.0005597758819990436,-0.00717593358232805,-48.215962650884364,52.203016056680056,4.826537337418079,-1656457.512359137,5091215.103250591,3599600.842741258,-186.84534280050252,-5260.961653720568,7342.737370075321,0.9949561506233406,-3.361878360485359e-05,0.0003195301341484021,0.10031029412306153
1.155,6.330423040274728e-06,0.0005324429091657804,-0.0071926182704990654,-48.19732116858973,52.19183308340931,4.831033689955173,-1656458.4458261966,5091188.798436856,3599637.556892422,-186.54148107432727,-5260.96384057102,7342.923095690442,0.9949579495632468,-3.3820185358628604e-05,0.0003209163377268269,0.10029244472939614
1.16,-1.7397587417691325e-05,0.0005512133365112257,-0.007161314360139751,-48.18797361630681,52.16699540437667,4.82937437585814,-1656459.377774235,5091162.49361218,3599674.2719721934,-186.23773435570766,-5260.966029503211,7343.108812792179,0.9949597523880493,-3.394370966569093e-05,0.00032224171253229463,0.10027455378118103
1.165,4.932148915772608e-06,0.0005341350419977687,-0.007157705503420825,-48.1878495491313,52.14531670842233,4.83627107343136,-1656460.308203765,5091136.188776621,3599710.987980328,-185.93407757305908,-5260.96819438811,7343.294441045189,0.9949615470261163,-3.413093527228374e-05,0.00032360783115006577,0.10025674068334994
1.17,3.0073231378479325e-05,0.0005453157137211399,-0.007183155251209967,-48.172536332316234,52.10764761902706,4.824830171426954,-1656461.2371151454,5091109.88393041,3599747.7049164544,-185.63047462785306,-5260.970289852686,7343.4800095530445,0.9949633404547898,-3.425833434036419e-05,0.0003249370661221419,0.10023893651329152
1.175,9.74038940183247e-06,0.0005429890923616504,-0.007145552715613404,-48.16360492509672,52.08875923744195,4.82555873414383,-1656462.1645088291,5091083.579073729,3599784.422780015,-185.3269988216773,-5260.9723825034725,7343.66541461085,0.9949651399326319,-3.4326019779425916e-05,0.00032630040999418,0.1002210689855431
1.18,-1.1629129163822145e-06,0.0005390072030831012,-0.007155016616071394,-48.144493615422576,52.060483449647094,4.8245326158175486,-1656463.0903853348,5091057.2742066365,3599821.141570455,-185.0236034571645,-5260.974454450475,7343.850761318972,0.9949669296681801,-3.444366776431112e-05,0.0003276528752720373,0.10020329497527414
1.185,6.928858781039041e-06,0.000550506166171771,-0.007157988275728806,-48.144971084083615,52.043192278448686,4.813354134002744,-1656464.0147452152,5091030.969329221,3599857.8612873955,-184.7203487633658,-5260.976511856094,7344.036014971319,0.9949687214570829,-3.45874470573234e-05,0.00032899270364224805,0.10018549740140695
1.19,8.781150132035792e-06,0.000538490629278499,-0.007142402320179492,-48.121122200884756,52.007065725617394,4.81364164406413,-1656464.9375888724,5091004.6644414915,3599894.581930372,-184.41711409706946,-5260.9785798941575,7344.221175637782,0.9949705136611883,-3.471398120732967e-05,0.0003303631611165188,0.10016769239586419
1.195,-2.7021626163847922e-05,0.0005384950898041002,-0.007115226246191623,-48.114283510978325,51.978761750302645,4.812674272109316,-1656465.8589168005,5090978.359543492,3599931.3034988586,-184.11405713184436,-5260.980619869197,7344.406218943955,0.9949723016525845,-3.483288611391291e-05,0.0003317041959243327,0.10014992612655725
1.2,-1.917206051728295e-05,0.0005417573235114326,-0.0071576572426283154,-48.09072182405409,51.96336110544436,4.811395894709581,-1656466.778729658,5090952.0546353925,3599968.0259923036,-183.8110858737508,-5260.982619870911,7344.591159100156,0.9949740825188198,-3.504082651700474e-05,0.0003330362799744852,0.10013222745354994
1.205,-2.456416891863354e-06,0.0005428933267277549,-0.007130796608118607,-48.07876329076642,51.93229604043799,4.812093272944619,-1656467.6970280022,5090925.749717231,3600004.7494103545,-183.5082517654691,-5260.9846450052055,7344.776061373066,0.9949758736862765,-3.52300935873705e-05,0.0003343784397821805,0.1001144231973113
1.21,-9.572262588867868e-06,0.0005403215832067226,-0.007148172571493627,-48.063094149403106,51.901490455393805,4.807694425552995,-1656468.613812465,5090899.444789048,3600041.4737526537,-183.20553341723564,-5260.986627771608,7344.96085814688,0.994977657812185,-3.537804336285801e-05,0.0003357276112803876,0.1000966857090866
1.215,1.8693823921797703e-05,0.0005362466113282805,-0.0071530623620545564,-48.0578424410991,51.877397656749594,4.811656757026659,-1656469.5290836499,5090873.139850988,3600078.199018647,-182.90294044879934,-5260.988596389391,7345.145539254216,0.994979445969012,-3.554306442213516e-05,0.00033706860338441767,0.10007890497325152
1.22,2.411806149632187e-06,0.00052705483735432,-0.007142753288710529,-48.04162062134481,51.845170395688946,4.796748892115284,-1656470.4428420628,5090846.834903217,3600114.925207862,-182.60042481211687,-5260.990512038911,7345.330146773191,0.9949812350354271,-3.5636759605980224e-05,0.00033840653075993196,0.10006111201869301
1.225,3.5092444152835317e-06,0.0005392171572878123,-0.007166578455866475,-48.03217309432351,51.826312263307614,4.796446018253209,-1656471.3550881902,5090820.529945805,3600151.652319739,-182.29802609833655,-5260.992452813485,7345.514603940112,0.9949830212098396,-3.5768647464293565e-05,0.0003397175218466824,0.1000433446899353
1.23,5.064690846295065e-06,0.0005459510194402402,-0.00711425500898667,-48.017975025933815,51.79394383920848,4.786275912781408,-1656472.265822527,5090794.224978728,3600188.3803537493,-181.99570866039943,-5260.994378028217,7345.699000293118,0.9949848130127978,-3.590086761249105e-05,0.00034105903842671906,0.10002551806288104
1.235,-1.6665867252667938e-05,0.0005305453771034339,-0.007139845791636316,-48.007666218193705,51.77001337684034,4.793424215605169,-1656473.1750455622,5090767.92000202,3600225.1093093934,-181.6935053913332,-5260.996305247053,7345.883257299828,0.9949865914070577,-3.603085791691664e-05,0.00034241769878085975,0.100007821554425
1.24,-1.6760547322982048e-06,0.0005380134791026901,-0.007126639835509012,-47.99747959419092,51.73797822407031,4.78293130912827,-1656474.0827578404,5090741.615015812,3600261.839186173,-181.3914059024995,-5260.998177585276,7346.067454405145,0.994988375893064,-3.62110724395487e-05,0.0003437326026372208,0.0999900613778145
1.245,-7.499852793504848e-06,0.0005496424313412302,-0.007114667826693843,-47.9733266832466,51.71972287469836,4.7886734089461465,-1656474.988959859,5090715.310020254,3600298.569983582,-181.08940152317356,-5261.000045746046,7346.251509251845,0.9949901567546463,-3.635585571944624e-05,0.00034506983134649743,0.09997233400510137
1.25,1.1898252700908655e-05,0.0005391543334267295,-0.007111073616174715,-47.96142008003332,51.687425241788425,4.780045859739227,-1656475.8936522405,5090689.005015375,3600335.301701192,-180.7875510590889,-5261.001905954305,7346.435534703794,0.994991934296343,-3.65180216478231e-05,0.00034643453221974805,0.0999546363845668
1.2550000000000001,-2.162550675868671e-06,0.0005431533611072783,-0.007125396743957296,-47.95059580519784,51.6606137085857,4.771829927922909,-1656476.7968356337,5090662.7000012165,3600372.034338587,-180.4858062671525,-5261.0037574828875,7346.619423439031,0.9949937106342831,-3.662931122038056e-05,0.00034777799170532443,0.099936947656924
1.26,-3.200558730764587e-06,0.000544047724904295,-0.007091283670687095,-47.93227771144874,51.637215282766746,4.77068166396857,-1656477.6985105318,5090636.394977801,3600408.7678951407,-180.1841529769367,-5261.005609084762,7346.803198000013,0.9949954902290633,-3.67765883882966e-05,0.0003491278843025618,0.09991922328075363
1.2650000000000001,3.396797857803316e-08,0.0005520196337423215,-0.0070931589302391925,-47.93028797629345,51.60858706040416,4.7791747207503565,-1656478.5986774839,5090610.0899451375,3600445.5023703813,-179.88262777589935,-5261.007456105107,7346.986898184997,0.9949972609855258,-3.692664121365055e-05,0.00035047974535276795,0.09990158372955263
1.27,3.781557853632092e-06,0.0005193376213533485,-0.007124519119943816,-47.90273397447464,51.57156265002267,4.7730218780640215,-1656479.497337001,5090583.784903459,3600482.237763917,-179.58117911036578,-5261.009215081247,7347.170516239454,0.9949990318889878,-3.707064082317366e-05,0.00035185224402351726,0.09988393947849247
1.2750000000000001,1.803381735830141e-05,0.0005198251937100534,-0.007094106161775416,-47.895241932672654,51.5512617994855,4.766334482123374,-1656480.3944897435,5090557.47985298,3600518.9740752033,-179.2799179429198,-5261.010976709211,7347.3539981159765,0.9950008103364377,-3.719718486527441e-05,0.00035314437905952114,0.09986621718704114
1.28,-4.688358408530721e-06,0.0005266774345695739,-0.007098456029231917,-47.87315534200851,51.5193521556359,4.7736051558679335,-1656481.2901363475,5090531.174793687,3600555.711303683,-178.9787235898121,-5261.012740556085,7347.53739377823,0.9950025808757232,-3.728837125067093e-05,0.0003544412879469151,0.0998485705035413
1.285,-6.642072495863054e-07,0.0005153529549136221,-0.007091851076127954,-47.87085348162144,51.49889872779041,4.758348897485757,-1656482.1842774071,5090504.869725699,3600592.4494489348,-178.67770025039405,-5261.014454725344,7347.7207070609675,0.9950043521777754,-3.7437793503689765e-05,0.00035574956936806977,0.09983091298761697
1.29,-2.7983964287753792e-05,0.0005228023644597489,-0.007080031829018352,-47.86064078212415,51.461171493478474,4.753431353467605,-1656483.0769134318,5090478.564649077,3600629.188510466,-178.3767096712751,-5261.016193879723,7347.90390524139,0.9950061215270803,-3.757437341794149e-05,0.00035703068586522994,0.0998132718674868
1.295,-1.7721148923163788e-05,0.0005342027524731119,-0.007070625365305771,-47.845024797435926,51.43628164465251,4.765739434535334,-1656483.9680447849,5090452.259563858,3600665.928487613,-178.07583156160442,-5261.017893734625,7348.086953538415,0.9950078876039484,-3.778075995932673e-05,0.0003583235166944075,0.09979566014010854
1.3,-4.527925029585433e-06,0.0005312652702118515,-0.0070835974709773375,-47.83343774369597,51.417962355880704,4.7560144915138345,-1656484.857672087,5090425.954470306,3600702.669379888,-177.77508927196916,-5261.019526977958,7348.269956683832,0.9950096510117069,-3.796445337996019e-05,0.0003596472674503767,0.09977807176982562
1.305,-1.5200653722661191e-06,0.0004932623994272725,-0.007065632466904381,-47.81839365099341,51.39074808349371,4.755597702162746,-1656485.7457958718,5090399.64936852,3600739.4111869712,-177.47442465425652,-5261.0211872694235,7348.452876443328,0.9950114173459496,-3.811460724856495e-05,0.0003609670007900291,0.0997604510881223
1.31,-1.1478730699440825e-05,0.0005457833334189192,-0.007084322934212306,-47.80733530507491,51.35852688306821,4.757684282529163,-1656486.6324166362,5090373.344258491,3600776.153908426,-177.17388111610194,-5261.022824541624,7348.6357055650515,0.9950131789213932,-3.824778479766795e-05,0.0003621929526657857,0.09974287506441591
1.315,-6.370755433457467e-06,0.0005361791902416987,-0.007095526123012625,-47.786339440994304,51.32817220154775,4.7474700387302375,-1656487.5175349712,5090347.039140406,3600812.8975437586,-176.87345291514464,-5261.024409270002,7348.818427385076,0.9950149447959608,-3.841884823912742e-05,0.0003635470669293882,0.09972525252017869
1.32,-3.245263390135659e-06,0.0005343728269529109,-0.007067771135510867,-47.77662663183376,51.30645229917125,4.742132981379335,-1656488.4011515174,5090320.734014347,3600849.6420923853,-176.57316553809432,-5261.026014521308,7349.001023287589,0.9950167131584263,-3.8574821132339336e-05,0.00036487856282240214,0.09970760207235772
1.325,1.179265216647627e-06,0.0005289281947966328,-0.007074395816566068,-47.75814727387059,51.27453158346641,4.738730757422739,-1656489.283266829,5090294.428880266,3600886.387553775,-176.2729591455107,-5261.027617867943,7349.1835327373665,0.9950184742907257,-3.872254363296024e-05,0.0003662063469611422,0.0996900206321203
1.33,1.605769763043316e-05,0.0005221950016456011,-0.0070545765023446024,-47.74694086397884,51.23791425240731,4.735155717868761,-1656490.1638814616,5090268.123738206,3600923.133927424,-175.97289380660126,-5261.029206115553,7349.365926856209,0.995020236766772,-3.88579090284253e-05,0.00036752168927290193,0.09967242267782976
1.335,-1.6408049630112377e-05,0.0005339033367923721,-0.007067829207213617,-47.72906382131101,51.2086770651141,4.739916142984323,-1656491.0429960587,5090241.818588305,3600959.881212692,-175.6729450587736,-5261.030754272431,7349.548180113653,0.995021993999768,-3.8954567564093915e-05,0.00036882399165963614,0.09965487398080788
1.34,-9.217180546088583e-06,0.0005194880585380784,-0.00704493738918709,-47.723785507174576,51.191435528068304,4.73602715711754,-1656491.920611272,5090215.513430769,3600996.62940902,-175.37314031698105,-5261.032260065177,7349.730351250262,0.9950237542087345,-3.913491562039931e-05,0.00037014732934274923,0.09963729231451987
1.345,-1.9926159548546874e-06,0.00051759581503523,-0.00705056347620805,-47.70817943540279,51.149564759803454,4.727550043214209,-1656492.796727599,5090189.20826572,3601033.378516034,-175.07339044907124,-5261.033759441129,7349.912454481302,0.9950255084181648,-3.929376401903475e-05,0.00037143660148577904,0.09961976755656432
1.35,7.0759748824551835e-06,0.0005074084514668426,-0.007056234551380186,-47.68389759985731,51.126626638999916,4.722223549390912,-1656493.6713455252,5090162.903093235,3601070.128533134,-174.7737799720781,-5261.035234925427,7350.094385339767,0.9950272637206651,-3.94341748024531e-05,0.00037272296515743404,0.09960222876574214
1.355,-9.448593360768004e-06,0.000517398922263848,-0.007049669128060302,-47.67390662778846,51.10610514603027,4.72002325628441,-1656494.54446577,5090136.597913309,3601106.879459689,-174.47431799151408,-5261.036735378489,7350.276236671253,0.9950290201346534,-3.954949540977927e-05,0.0003739862445219095,0.09958467582915416
1.36,1.0443156229498086e-05,0.0005130054338963364,-0.007038036768763531,-47.662353782352575,51.06790867653181,4.727137147339474,-1656495.4160889152,5090110.292725909,3601143.6312953187,-174.17494004906686,-5261.038224822065,7350.458015323826,0.9950307745921396,-3.9708403173154184e-05,0.00037527026245513594,0.09956713920787069
1.365,1.3339077934124951e-06,0.0005196857797761845,-0.007058925959685692,-47.65138577450101,51.032033785252885,4.7270774019787565,-1656496.2862155072,5090083.987531274,3601180.384039549,-173.8756967288227,-5261.039629084279,7350.639676796334,0.9950325258500107,-3.9816724135780466e-05,0.00037654830369729197,0.09954963147370911
1.37,1.139750018012931e-05,0.0005176022374521256,-0.007036057512398799,-47.62959792839908,51.00934876330005,4.722200273535276,-1656497.154846179,5090057.68232975,3601217.137691766,-173.57657202605475,-5261.040980542803,7350.821209970258,0.995034281988841,-3.9949387311573967e-05,0.0003778406935903247,0.09953207175281999
1.375,-1.761689122492581e-05,0.0005062880471527229,-0.007045617358987205,-47.6194613754739,50.98677753212922,4.710029652981452,-1656498.0219815709,5090031.3771214215,3601253.8922514506,-173.2775847341482,-5261.042350660752,7351.002663843026,0.9950360321297324,-4.0056476376555794e-05,0.00037913040678478173,0.09951456887879119
1.3800000000000001,1.8647285627233248e-06,0.0005150640823268018,-0.00704674710226422,-47.599861562394295,50.96135379496305,4.713983590818768,-1656498.887622215,5090005.071906183,3601290.6477181325,-172.9786729614923,-5261.043744585551,7351.184008909806,0.9950377843468748,-4.023293558545232e-05,0.00038038475544963123,0.09949704222142036
1.385,7.670625027691697e-06,0.0005296814968137208,-0.007025690096311828,-47.58750718464212,50.93388685339407,4.698567475887393,-1656499.75176866,5089978.766684042,3601327.4040913708,-172.67990498638974,-5261.045111601638,7351.36528640258,0.9950395365282589,-4.036311646052181e-05,0.00038166578100754596,0.0994795127032608
1.3900000000000001,-2.5134541896389276e-05,0.0005327079230730876,-0.007047209856221372,-47.57610175320874,50.90002090898223,4.699867485725876,-1656500.61442149,5089952.461454992,3601364.1613706565,-172.38122706506522,-5261.046508497497,7351.546427930547,0.9950412831498391,-4.048246982304392e-05,0.00038298461475424437,0.09946203552851852
1.395,-1.7906573712260558e-05,0.000518364670103445,-0.007038824020666593,-47.55310495381294,50.85730850960149,4.7104821020474,-1656501.4755812273,5089926.156219089,3601400.91955536,-172.08266783572708,-5261.047852690287,7351.727453448767,0.9950430348065284,-4.0684202552071977e-05,0.00038430281757979547,0.09944450482130192
1.4000000000000001,-1.1023580103605676e-05,0.0005383874161191823,-0.007021396499889621,-47.542256179718066,50.83118090914145,4.694666301103255,-1656502.3352486647,5089899.85097668,3601437.6786449,-171.78430711170407,-5261.049110859271,7351.908362547217,0.9950447840827104,-4.086438096894633e-05,0.0003855871377078508,0.09942699493826564
1.405,-1.0451718298286243e-05,0.0004954393119640273,-0.007012685235083073,-47.52279806749533,50.792637606121225,4.696439159338568,-1656503.1934244994,5089873.545727902,3601474.438638653,-171.4860267389009,-5261.050400477447,7352.089138735524,0.9950465286992808,-4.103239736000769e-05,0.00038692297920742895,0.09940952836857218
1.41,-1.691354491289332e-05,0.0005239911994087083,-0.007012708458525605,-47.51088208810055,50.772866637683286,4.691631572535096,-1656504.0501093415,5089847.240472798,3601511.1995359696,-171.18791014575694,-5261.051641211208,7352.269787788303,0.9950482708846131,-4.118830911219574e-05,0.0003881521251972989,0.09939208344225678
1.415,1.0981996758925556e-05,0.0005259896898541512,-0.006994708774203764,-47.493096137964386,50.743086433860974,4.688391072840486,-1656504.9053038205,5089820.935211478,3601547.9613363426,-170.88988143109034,-5261.052886793799,7352.450361364758,0.9950500127398861,-4.136739002663609e-05,0.00038945069169439534,0.09937463843078964
1.42,1.0115349847635635e-05,0.0005184161667571465,-0.007009155602257668,-47.47772434539587,50.70446821803053,4.681344443673503,-1656505.7590084912,5089794.629943961,3601584.7240393157,-170.59198685595098,-5261.054119990394,7352.630827986713,0.9950517498175452,-4.1477556253867684e-05,0.0003907611617011894,0.09935723813778419
1.425,1.1957953719815152e-05,0.0005217793706859805,-0.007010513135683073,-47.46665443263549,50.67747142729995,4.685017971989168,-1656506.6112240246,5089768.324670335,3601621.4876442337,-170.29422647975727,-5261.0553304719915,7352.811139114781,0.9950534901844054,-4.158801126673031e-05,0.00039205257470192374,0.0993398018774425
1.43,-1.0830102833226898e-05,0.0005204805830646782,-0.007004373736642793,-47.450114866453454,50.652716563602866,4.685244789263151,-1656507.4619510258,5089742.019390774,3601658.2521505025,-169.99657398702863,-5261.056493961827,7352.991368439618,0.9950552305780285,-4.169471912390403e-05,0.00039335281146971805,0.09932236220722282
1.435,-1.4411055625376096e-05,0.0005046729560108816,-0.006990889838401235,-47.437096461307505,50.619379278135945,4.674360585239265,-1656508.3111900745,5089715.714105438,3601695.0175577234,-169.69904549765315,-5261.057640369001,7353.17151990126,0.9950569691390304,-4.1857786871395633e-05,0.00039464415943351076,0.09930493780149982
1.44,-2.244665723938913e-05,0.0005130931701159638,-0.006978951211066351,-47.41357716544187,50.58877927283059,4.675651622634877,-1656509.158941754,5089689.408814371,3601731.783865335,-169.40162624646342,-5261.058786545445,7353.3515246469005,0.9950587040615438,-4.2025824994150616e-05,0.0003958952959475006,0.09928754691352651
1.445,-4.849955764316515e-06,0.0005260852544755254,-0.007002667271072632,-47.387158879613615,50.5609110320627,4.6686116058872456,-1656510.0052067547,5089663.103517624,3601768.551072737,-169.10437410270026,-5261.059912264144,7353.531436391756,0.9950604357064483,-4.221593108225377e-05,0.0003971653855248562,0.09927018570127236
1.45,-1.083973526421302e-05,0.0005135757091408315,-0.007014360203709877,-47.38522845738821,50.529097025667824,4.6659746110052,-1656510.8499859062,5089636.798215186,3601805.3191794413,-168.8072864865233,-5261.061062545686,7353.711245282808,0.9950621729204348,-4.236551056835929e-05,0.0003984721593196059,0.09925276544240304
1.455,2.021623377197139e-05,0.0005299055304780586,-0.007012396902281916,-47.35868193002929,50.499461157727,4.660669448986291,-1656511.693279788,5089610.492907128,3601842.088184874,-168.51026617703002,-5261.062160915433,7353.890927642443,0.9950639127404773,-4.252689817974907e-05,0.00039974632605905457,0.09923531607220029
1.46,3.746677181116312e-06,0.000508854995399079,-0.006997136915594641,-47.343163660737225,50.46724049834413,4.666397130868859,-1656512.535088994,5089584.187593543,3601878.858088455,-168.21341637337505,-5261.063273215983,7354.070504954859,0.9950656517528309,-4.2615078368239454e-05,0.00040106882054570514,0.09921787152257504
1.465,-1.6791766535318698e-05,0.0005177120138664605,-0.006983717680999858,-47.34874390136986,50.42831002531565,4.659555870038048,-1656513.375414301,5089557.882274541,3601915.628889689,-167.9167063576768,-5261.064327434513,7354.249988587776,0.9950673866925441,-4.2738992494764924e-05,0.00040233486468755665,0.09920046492283309
1.47,-9.640655405903019e-06,0.0005070938354184507,-0.0069822850475745315,-47.317658481400315,50.40448019143283,4.6539258485908395,-1656514.21425616,5089531.576950436,3601952.400587908,-167.62003719951628,-5261.065314568521,7354.429298857173,0.9950691179876219,-4.2916182500264027e-05,0.00040361784990731466,0.0991830916949493
1.475,7.414459598088038e-07,0.000532907649213142,-0.006963852402662564,-47.2969767531793,50.36821889806601,4.662510185744557,-1656515.0516151232,5089505.271621301,3601989.173182481,-167.32354809830298,-5261.066339498135,7354.60853040773,0.9950708486340528,-4.3072948563000605e-05,0.00040487619377673,0.09916572199452174
1.48,-2.833934176449386e-06,0.000518023714681602,-0.006987873319960401,-47.281779106483675,50.337284367428765,4.649283808877044,-1656515.8874920753,5089478.9662872115,3602025.9466729667,-167.02723278880623,-5261.067296334606,7354.787663972357,0.9950725743816733,-4.3210268252906766e-05,0.00040620132981272793,0.09914839810497088
1.485,1.551903351419232e-06,0.0005140216985705245,-0.006984709778954847,-47.26860729574747,50.309717081115274,4.642419404377298,-1656516.72188773,5089452.6609482905,3602062.721058766,-166.7310291110895,-5261.068272024874,7354.966655721212,0.9950743057937493,-4.335281743402847e-05,0.00040748855040894787,0.09913101443394223
1.49,-2.0507962208946955e-05,0.0005204472996981752,-0.006975696789356809,-47.24977945158104,50.28358301998028,4.638455077532474,-1656517.5548026282,5089426.355604498,3602099.4963392443,-166.43493013178838,-5261.069245148151,7355.145535487109,0.9950760361211599,-4.348346098371148e-05,0.0004087669023958555,0.0991136385983702
1.495,-1.2380802606451882e-05,0.0005353356307023628,-0.006968797375341915,-47.23934926766852,50.25324026572883,4.645633962663141,-1656518.3862373596,5089400.050255837,3602136.2725138874,-166.13896240661134,-5261.07021911791,7355.32432180695,0.9950777639016443,-4.367056558026389e-05,0.0004100557740577838,0.09909628517581996
1.5,-5.558853928461153e-06,0.0005067607647129713,-0.006945368829182138,-47.22038995624645,50.21280916538602,4.6345150153163095,-1656519.2161925407,5089373.744902481,3602173.0495822467,-165.8431100357353,-5261.071123183728,7355.503021868774,0.9950794896544214,-4.3841133646835375e-05,0.0004113836973937868,0.09907894887666557
1.5050000000000001,7.137569472024587e-06,0.0004952385258468367,-0.0069419787054288366,-47.20228578942148,50.190361425594816,4.634883629716924,-1656520.0446688302,5089347.439544614,3602209.8275436773,-165.5474058141801,-5261.072023608815,7355.681550456463,0.995081209331436,-4.39876287325309e-05,0.00041264222729357964,0.09906167082665093
1.51,-2.860270986519808e-06,0.0005106621771401836,-0.006960992227561304,-47.18148573204208,50.157556997838974,4.622386078203409,-1656520.8716669162,5089321.134182268,3602246.6063975836,-165.2518285311887,-5261.072914767524,7355.860012030385,0.9950829278807344,-4.409968184617286e-05,0.000413875237855015,0.09904440116841999
1.5150000000000001,7.251698575000228e-06,0.0004765963470137815,-0.006947657066842057,-47.17120681573464,50.11678418945595,4.627462958911558,-1656521.6971874682,5089294.828815409,3602283.3861434404,-164.95639223771965,-5261.07382900804,7356.038330705765,0.99508465081882,-4.424044538614144e-05,0.0004151441401494856,0.09902708418868508
1.52,-7.337074693339473e-06,0.0005208380066103138,-0.006946894479878269,-47.146380439731104,50.08699664663895,4.630503278314494,-1656522.521231165,5089268.523444193,3602320.1667805538,-164.66108649001723,-5261.07465725323,7356.216514697662,0.9950863701897261,-4.434760580881718e-05,0.000416330801228189,0.09900980034617378
1.5250000000000001,-8.838224281482979e-06,0.0005067654656758056,-0.006944751315960733,-47.131641340300504,50.06427129449854,4.616315154092288,-1656523.343798767,5089242.218068894,3602356.9483083775,-164.36595437119982,-5261.075462527623,7356.394614763726,0.9950880890224858,-4.450200904262658e-05,0.000417623911867524,0.09899251838102062
1.53,-3.957901615850429e-06,0.0005204287074329125,-0.006948591891282347,-47.12295757530047,50.022968526140815,4.620138477207413,-1656524.1648909426,5089215.912689466,3602393.7307264227,-164.07091585594978,-5261.076308352404,7356.572603218778,0.9950898070376889,-4.465666177487018e-05,0.00041888164256757306,0.09897524172058023
1.5350000000000001,1.1953044246052708e-05,0.0005051895994571618,-0.00692551369217379,-47.10634697917039,49.988637526862966,4.61668046239478,-1656524.9845082322,5089189.607306024,3602430.5140340556,-163.77600001485033,-5261.077068615673,7356.750449988293,0.9950915256876715,-4.480255842372944e-05,0.0004201745706711237,0.09895795546919606
1.54,-6.817731867911163e-06,0.0005226243825705797,-0.00693824495642559,-47.09052006709416,49.961990378476436,4.625126523507075,-1656525.802651284,5089163.301918842,3602467.2982306043,-163.48122065573997,-5261.077804229739,7356.9281695059735,0.9950932383450874,-4.490507862095492e-05,0.0004214335267511824,0.09894072658518005
1.545,-1.3470806081012906e-05,0.0005052013002950626,-0.006934315167538789,-47.07197371267792,49.929103204965074,4.600287672597178,-1656526.6193207751,5089136.996528121,3602504.0833155923,-163.1865758237144,-5261.078484345768,7357.105825618606,0.99509495383064,-4.5058621424321894e-05,0.00042273121137613434,0.09892346601711881
1.55,1.655711757257479e-05,0.00048135262083773663,-0.00692107808790139,-47.0436025389531,49.903782927601995,4.606575612703437,-1656527.43451733,5089110.691133832,3602540.8692884115,-162.89204610051564,-5261.079231318679,7357.283302100857,0.9950966680611167,-4.52244022831784e-05,0.00042398390689991883,0.09890621520442444
1.555,-1.5072094429643188e-05,0.000530996116427332,-0.006935208219490797,-47.038573807364855,49.86423875685836,4.606347742118004,-1656528.2482417005,5089084.385735853,3602577.6561484784,-162.5977020870335,-5261.079959987445,7357.4607247220165,0.9950983787471922,-4.530957042413082e-05,0.0004251846993095152,0.0988889972632144
1.56,3.0373538214195024e-06,0.0005020126884338753,-0.006913284089421133,-47.01610987327209,49.82717133986875,4.596910717394119,-1656529.0604945954,5089058.080334414,3602614.4438952864,-162.30345592676144,-5261.080615582712,7357.637998441624,0.9951000925700786,-4.548571200391698e-05,0.0004265011709425863,0.09887174416799906
1.565,-5.93884339936088e-07,0.0005114588322965959,-0.006923107777082824,-46.997631580838615,49.80914573838904,4.593078064146986,-1656529.8712766594,5089031.7749296855,3602651.2325280868,-162.00936968452788,-5261.081275689496,7357.815121776834,0.9951018007068845,-4.560961430405627e-05,0.00042775001769237015,0.09885454556873709
1.57,-2.3204578871019963e-07,0.0005399710412921893,-0.0068797479977322305,-46.976022782958246,49.77375127586212,4.583569863826788,-1656530.6805885804,5089005.469521612,3602688.0220463527,-161.7153986854494,-5261.081953919342,7357.992184506374,0.9951035109616991,-4.5744895210418105e-05,0.0004290214654692976,0.09883732250362856
1.575,-1.4048809342832045e-05,0.0004888461925924155,-0.006912355335907795,-46.97064624999278,49.737339445882746,4.598237885993831,-1656531.4884310288,5088979.16411013,3602724.8124495707,-161.42158066430588,-5261.0826390229795,7358.16910272114,0.995105210174112,-4.588627460634792e-05,0.0004303639389825634,0.0988202072739493
1.58,1.7693059238139975e-05,0.000495103198164839,-0.006921205299465785,-46.9424226946675,49.697282642503914,4.584139162271715,-1656532.2948046695,5088952.858695531,3602761.6037371443,-161.12787556417865,-5261.08320017612,7358.345926666536,0.9951069171981861,-4.6049431484257956e-05,0.0004315758086797618,0.09880301091613465
1.585,5.956082131232185e-08,0.0004992229571800106,-0.006892788146489031,-46.923277970664024,49.66120806958211,4.586631394661557,-1656533.099710247,5088926.553278059,3602798.3959084097,-160.83435552399578,-5261.083789062543,7358.522579635042,0.9951086261061154,-4.613517704184059e-05,0.0004328110836827139,0.09878579247700926
1.59,-3.1471747066323847e-06,0.0004899385177695639,-0.006894765532487939,-46.89986746122958,49.63864535606275,4.581137159384001,-1656533.9031486209,5088900.247857759,3602835.188962651,-160.5409939973547,-5261.0843309082065,7358.699116857294,0.9951103276912785,-4.626577738757186e-05,0.000434052256005064,0.09876864472226639
1.595,-8.248965171688316e-06,0.0004991381850246248,-0.006916002483823814,-46.88818903057969,49.60176309679597,4.5800404227029246,-1656534.7051205453,5088873.942434689,3602871.982899379,-160.24777577298377,-5261.08489699299,7358.875574330649,0.9951120294773097,-4.6402064975692565e-05,0.00043526953855293544,0.09875149202329618
1.6,-1.0757034943004223e-05,0.0004840071450902946,-0.006889077588608499,-46.875737564858426,49.567490832164125,4.572458372668108,-1656535.5056266831,5088847.637008914,3602908.7777180565,-159.95467931145078,-5261.085413063431,7359.0518966108275,0.9951137361975974,-4.655333899420204e-05,0.00043650844573215464,0.09873428646636437
1.605,-5.05547613923463e-06,0.0005072257826723591,-0.006897120507821719,-46.845834920784846,49.54021230715105,4.569349729404248,-1656536.304667619,5088821.331580601,3602945.57341799,-159.66169510918388,-5261.085912277809,7359.228076817967,0.9951154359902479,-4.670708827198688e-05,0.0004377090940689466,0.09871714786771263
1.61,1.6355465004100365e-05,0.0005179293145525283,-0.006870049532600119,-46.83689692276133,49.50410406482259,4.566495114318478,-1656537.1022440938,5088795.026149748,3602982.3699986073,-159.36889480614954,-5261.086428717308,7359.404170008858,0.9951171374460456,-4.685239225826669e-05,0.00043896891150162936,0.09869998922156055
1.615,-8.137627272720673e-07,0.0005001306669852352,-0.006880989480029157,-46.807571485029634,49.47289891891875,4.554915417582661,-1656537.8983568316,5088768.720716431,3603019.167459342,-159.07620030073858,-5261.086898228103,7359.580124005171,0.9951188319165039,-4.694704163234194e-05,0.00044026064329360577,0.09868289786824416
1.62,7.26577863708966e-06,0.0005132353668183836,-0.00687964760398988,-46.80210204944939,49.44066458386957,4.557881923758107,-1656538.6930065404,5088742.415280664,3603055.9657995296,-158.78368320946282,-5261.08740802695,7359.7559508651,0.9951205288078756,-4.708002553285394e-05,0.00044150385847448783,0.09866577929022857
1.625,-1.248424195992332e-05,0.0004983729220715835,-0.006876008085383001,-46.7699941724883,49.402462436222805,4.562064380876562,-1656539.4861938907,5088716.10984252,3603092.765018576,-158.491256885292,-5261.0878497774365,7359.931667707627,0.9951222250587201,-4.7196140108108526e-05,0.000442781668507156,0.09864866401072331
1.6300000000000001,-1.607797824367342e-05,0.0005061379503657388,-0.006862709855194434,-46.76111279292614,49.35651950109674,4.544545307910163,-1656540.277919666,5088689.804402248,3603129.5651159333,-158.19905317521946,-5261.088259270086,7360.10727529904,0.9951239201302988,-4.73577194508751e-05,0.00044401763318205415,0.09863155777992502
1.635,-3.691153331645622e-06,0.0005097207379589034,-0.006846356889148486,-46.738677136500094,49.33344842240574,4.560053373453865,-1656541.0681846829,5088663.498959958,3603166.3660907783,-157.90695362106322,-5261.08865680885,7360.282662604449,0.9951256116187114,-4.753013924242817e-05,0.0004452720310737003,0.09861448460641935
1.6400000000000001,-1.368704829068783e-06,0.0005109527689861312,-0.006881344563112857,-46.71369352669222,49.312000421942,4.553736400493763,-1656541.8569896189,5088637.193515834,3603203.1679424993,-157.61502080345412,-5261.0889925843585,7360.458025930917,0.995127298779181,-4.767260798621475e-05,0.00044653839788714734,0.0985974520727199
1.645,-1.5676655775429263e-05,0.0004959486449507495,-0.006866242033900746,-46.70142067028209,49.26132973322885,4.541954202599875,-1656542.644335259,5088610.888069949,3603239.9706708463,-157.32323522498345,-5261.089361497102,7360.633312886202,0.9951289942681509,-4.78096416322823e-05,0.0004478083979365284,0.09858033246411424
1.6500000000000001,2.4592625660780787e-05,0.000518436590498522,-0.006836707881194572,-46.69229315881181,49.22787168578444,4.537524961277254,-1656543.430222309,5088584.582622316,3603276.7742750766,-157.03158480832192,-5261.0896918365825,7360.808379135174,0.9951306857547314,-4.797855621980352e-05,0.00044903754585452115,0.09856325041646401
1.655,1.6340191947461292e-05,0.0005087803124248074,-0.006855646543162924,-46.66505773516413,49.19447335402302,4.534030256544388,-1656544.2146513565,5088558.277173116,3603313.578754306,-156.74003419713208,-5261.089987879217,7360.983312612735,0.995132369649874,-4.8052795856716006e-05,0.00045033256597241906,0.09854624176768786
1.6600000000000001,-4.429114206155863e-06,0.00048787707846896413,-0.0068434747851730945,-46.650851334994684,49.159375741098785,4.523409321096455,-1656544.9976231067,5088531.971722439,3603350.3841079143,-156.44866582620236,-5261.0902829261395,7361.158130851711,0.9951340579275747,-4.814520848621729e-05,0.00045160152737949163,0.09852918598414291
1.665,-1.0135513142713891e-05,0.0005000451971317277,-0.006830220346423317,-46.62385153972845,49.125957304793076,4.533436727289435,-1656545.7791383087,5088505.666270295,3603387.1903352328,-156.15741503091144,-5261.090574589181,7361.332796457398,0.9951357429348444,-4.828412902277795e-05,0.00045281337036132536,0.09851216047884524
1.67,1.3384275361033913e-06,0.000506325837228305,-0.006840199256231506,-46.60770581384508,49.10131078860123,4.524276467831932,-1656546.5591977532,5088479.36081683,3603423.997435685,-155.86636279643554,-5261.090811493683,7361.507384321337,0.9951374243711042,-4.844022791370079e-05,0.00045405408176042375,0.09849516792452327
1.675,-6.573208695018842e-06,0.0005055540173150006,-0.006837572073739651,-46.58313109805891,49.05043425765143,4.516711910037326,-1656547.3378022106,5088453.055362133,3603460.8054088145,-155.57542008261066,-5261.091067294722,7361.681867623794,0.9951391079666541,-4.856933928013375e-05,0.00045531324238707406,0.09847815050153313
1.68,1.135603904882569e-05,0.0005104591507907555,-0.006832991190141124,-46.55698116721655,49.01644686767152,4.5257771872252714,-1656548.1149524443,5088426.7499062335,3603497.6142538614,-155.28467348596124,-5261.091292433084,7361.856151051307,0.9951407906228357,-4.8717940569874164e-05,0.00045656853522019333,0.09846113959472831
1.685,4.026799507542533e-06,0.0004934622101371156,-0.006842909313752349,-46.54792658882089,48.981606317439145,4.51723870827822,-1656548.8906494316,5088400.444449344,3603534.4239701163,-154.9941213878978,-5261.09146351506,7362.030351021152,0.995142471855811,-4.8823138714730684e-05,0.0004578404450586086,0.09844414003451138
1.69,-8.095882896274856e-06,0.0005085224626045836,-0.006836255613113397,-46.52956608454888,48.96236962355583,4.512562953078638,-1656549.6648938998,5088374.138991653,3603571.2345569963,-154.70366587924633,-5261.091613034171,7362.2044009908595,0.9951441552559159,-4.894239916840932e-05,0.00045906826380637256,0.0984271157809691
1.695,8.170706820118725e-06,0.0004908078698273649,-0.006831780964292875,-46.50809128586197,48.923538134737846,4.511420352690754,-1656550.4376863793,5088347.833533168,3603608.046013956,-154.41332596406292,-5261.091780743427,7362.378382714365,0.9951458367074756,-4.909551735582622e-05,0.00046033056803720284,0.09841010806404314
1.7,1.5402461390185414e-06,0.0004962361480458491,-0.006818438603436282,-46.48993378140656,48.87910991683192,4.5062357846571475,-1656551.2090275818,5088321.528073931,3603644.858340485,-154.12315502075336,-5261.091913893536,7362.55222893157,0.995147516788506,-4.920380306923616e-05,0.0004615528031661612,0.09839311143401237
1.705,8.874034978191247e-06,0.0004980521306341526,-0.0068202880054712865,-46.46399963562031,48.84848510267382,4.496921999581644,-1656551.9789183266,5088295.222614125,3603681.6715358146,-153.83314289135055,-5261.092008730558,7362.725902887764,0.9951491932892252,-4.932990435189998e-05,0.00046278691366610975,0.098376147976212
1.71,-3.6432869151981856e-07,0.0004989319814990864,-0.006809228212697476,-46.445768507003095,48.807340050382244,4.497895059810443,-1656552.7473594204,5088268.91715378,3603718.48559921,-153.54329464082016,-5261.092129184132,7362.899455412426,0.9951508699528145,-4.9438208848159e-05,0.0004640273454115177,0.09835917987988052
1.715,-2.575766520775112e-07,0.0004913903931335286,-0.006798662371907425,-46.430583895683,48.77596640368946,4.4841137401718205,-1656553.514351676,5088242.611692971,3603755.3005300146,-153.25360758526617,-5261.092194743794,7363.07286627835,0.9951525436042667,-4.956970076750716e-05,0.00046526769565465834,0.09834223928086128
1.72,-1.041880427329757e-05,0.00048696706191402224,-0.006785947366913532,-46.415229653754864,48.73657392729761,4.4884574404469575,-1656554.279895774,5088216.306231784,3603792.116327509,-152.96403168076495,-5261.092279849444,7363.246131452801,0.9951542143773751,-4.969906065444865e-05,0.0004664893107403068,0.09832532494060617
1.725,6.606400800717821e-06,0.0004750413613237315,-0.006813666059356225,-46.383029403747656,48.70578807332476,4.490589624630196,-1656555.0439923664,5088190.000770347,3603828.93299101,-152.67460522129073,-5261.092294930193,7363.419269144056,0.995155881740424,-4.985259835597556e-05,0.0004676974247637765,0.09830844221772904
1.73,-5.589987622702499e-07,0.00048697526153621245,-0.006782514110917375,-46.36431178303744,48.67990558327655,4.483399287160082,-1656555.8066423438,5088163.695308852,3603865.7505199877,-152.38538573134426,-5261.092302888459,7363.592321742026,0.9951575556429679,-4.996088062788698e-05,0.0004688800496725484,0.09829149048683021
1.735,-9.797374103372375e-06,0.0005039705523711739,-0.006788965062399532,-46.353409853284255,48.63921614468243,4.476337691550543,-1656556.567846538,5088137.389847284,3603902.5689139725,-152.0962919489723,-5261.092324283015,7363.765272230991,0.9951592215868195,-5.0089885624866216e-05,0.0004700906078690615,0.0982746162370497
1.74,7.71378188998404e-06,0.0004972362024371561,-0.0067737130968193865,-46.32013258802786,48.600224134467354,4.471586209267499,-1656557.327605556,5088111.084385702,3603939.388172289,-151.80731521594717,-5261.0923084897795,7363.938054424239,0.995160888806529,-5.0246057838925496e-05,0.0004713411779282618,0.0982577259182552
1.745,-9.868255348188218e-06,0.0004748668803187506,-0.006783052563875437,-46.31072531987286,48.562462781782685,4.474825597303019,-1656558.085920234,5088084.778924191,3603976.2082941746,-151.51855601988447,-5261.092295937442,7364.110699769773,0.9951625520022302,-5.0356991767587885e-05,0.00047257929687888176,0.09824087349667657
1.75,-6.8588437873001605e-06,0.00047559090350921245,-0.006780187091902632,-46.28309996099587,48.53206284436778,4.467131171400307,-1656558.842791412,5088058.473462928,3604013.0292789647,-151.22991517289884,-5261.092209269459,7364.283216311937,0.9951642172286926,-5.050618522406933e-05,0.0004737574435513736,0.09822399783461008
1.7550000000000001,-4.264631026661013e-06,0.0005130379218001414,-0.006790107630724062,-46.27436912663321,48.500512624353796,4.456956098450184,-1656559.5982198184,5088032.168002041,3604049.8511260506,-150.94144738394644,-5261.092145727413,7364.455618092294,0.9951658814635772,-5.064806591649466e-05,0.0004749381307448458,0.09820712926955356
1.76,-1.1790183229521219e-05,0.0004947004190787914,-0.006750040540370254,-46.25401225818665,48.46929860254015,4.464336882467121,-1656560.3522061033,5088005.862541492,3604086.6738347914,-150.65306660061393,-5261.092073896468,7364.627878227435,0.9951675478021266,-5.079269810371379e-05,0.0004762126184576719,0.0981902359868127
1.7650000000000001,1.342575693420288e-05,0.000493474269703135,-0.0067568626127468626,-46.226887028974915,48.422886088173264,4.456855560263888,-1656561.1047508875,5087979.557081435,3604123.4974046284,-150.36484704447665,-5261.091949047795,7364.800056604106,0.9951692040393989,-5.095150412921871e-05,0.000477439641562708,0.09817344237074595
1.77,7.511760212499843e-06,0.0004855525178232761,-0.006780995498845071,-46.198234806161864,48.383008837425784,4.450568232420235,-1656561.8558550726,5087953.251622041,3604160.3218349083,-150.07682698509313,-5261.091808469303,7364.972055264581,0.9951708616705133,-5.104728202695298e-05,0.00047866980193580637,0.0981566317238119
1.7750000000000001,-9.093519577475107e-07,0.0004669105743956662,-0.006732530146148057,-46.18633699726531,48.34764641458071,4.448759583808394,-1656562.605519648,5087926.946163355,3604197.1471248097,-149.7890032118073,-5261.091665612422,7365.143905359569,0.9951725249458854,-5.115585845099767e-05,0.0004798787991047078,0.09813976101584752
1.78,-6.921493880890416e-06,0.0004754292589791291,-0.006746980742533885,-46.1704287084081,48.31952022923839,4.453302068463072,-1656563.3537454016,5087900.640705493,3604233.973273634,-149.50129817503466,-5261.091479115025,7365.315624256481,0.9951741760662257,-5.1280754075609345e-05,0.0004810393563446073,0.09812301087069614
1.7850000000000001,-1.7798888640935609e-06,0.0005086146361287748,-0.0067566645956919705,-46.1432119626802,48.27618422418513,4.439566756185437,-1656564.10053296,5087874.335248674,3604270.8002808504,-149.21372515540992,-5261.091248783368,7365.487262293848,0.9951758304364776,-5.142271458224416e-05,0.00048221963070828767,0.0981062247515385
1.79,2.3053814343785656e-05,0.0004782909889134945,-0.006753066709557691,-46.127888322607774,48.24226913621186,4.43800002737639,-1656564.845883119,5087848.029792965,3604307.6281457953,-148.92633849493683,-5261.091034618556,7365.658715653912,0.9951774868574469,-5.156003397607326e-05,0.0004834837279607175,0.09808941450097362
1.795,7.171766505862214e-06,0.000504969927578513,-0.006754269431769585,-46.0997827522599,48.20669445869741,4.440667557259747,-1656565.5897966744,5087821.724338413,3604344.456867702,-148.63908367003611,-5261.090786124503,7365.8300471023995,0.9951791421506647,-5.162812807846165e-05,0.0004846784718192497,0.09807261314751667
1.8,-5.895624915423507e-06,0.00048684133383746197,-0.006727182544214877,-46.08306339165868,48.16518565791939,4.432021055037162,-1656566.3322744498,5087795.418885176,3604381.286446,-148.3520264965513,-5261.090508833085,7366.001272026053,0.995180797419184,-5.174227851331189e-05,0.00048593569720704275,0.09805580878944371
1.805,2.1738458913063723e-05,0.0005158943268946364,-0.006729440975694962,-46.05583348116681,48.13566048898137,4.420939612552176,-1656567.0733172956,5087769.113433378,3604418.1168799936,-148.06511179768796,-5261.090210416207,7366.172325476222,0.995182445783823,-5.188446303491098e-05,0.00048714461955491075,0.09803907181246932
1.81,-1.2306415843726463e-05,0.0004872145135558928,-0.006735437985692792,-46.03919973462245,48.09934375626563,4.417663081536828,-1656567.812925981,5087742.807982978,3604454.9481689516,-147.77836236310165,-5261.08994952373,7366.3432577773965,0.9951840943870582,-5.1965018725565974e-05,0.0004884325970927743,0.09802232915130019
1.815,4.681356189431025e-07,0.0004786540122033813,-0.006729847341765378,-46.00539137852228,48.053968040722005,4.41516481485894,-1656568.5511012685,5087716.502533959,3604491.7803122327,-147.49175267778588,-5261.0896580827575,7366.514054635015,0.9951857442070037,-5.212325586362477e-05,0.0004896408765824592,0.09800557158718329
1.82,8.503456310955238e-06,0.0004923636747721223,-0.00672798322845536,-45.987084478025935,48.01807793987286,4.410385686991653,-1656569.2878440926,5087690.197086446,3604528.6133091073,-147.20537697882503,-5261.089347189907,7366.684695197038,0.9951873923859167,-5.22476060724972e-05,0.0004908309883819913,0.09798882788995922
