t_s,gyro_x_radps,gyro_y_radps,gyro_z_radps,accel_x_mps2,accel_y_mps2,accel_z_mps2,ins_pos_ecef_x_m,ins_pos_ecef_y_m,ins_pos_ecef_z_m,ins_vel_ecef_x_mps,ins_vel_ecef_y_mps,ins_vel_ecef_z_mps,ins_quat_w,ins_quat_x,ins_quat_y,ins_quat_z
0.0,3.4790497208111903e-06,0.0006031924149327902,-0.0074061579670611,-45.301985276723784,51.872074853647206,5.138629468850485,-1656201.7170614246,5097264.758841336,3591181.9960583495,-242.6143302865707,-4938.608152381165,6852.28340073394,0.9945218953682734,0.0,0.0,0.10452846326765354
0.005,1.0687561328900846e-05,0.0005978544715187206,-0.007390236308037661,-45.31127772611834,51.86676513676882,5.141703367669938,-1656202.9294052783,5097240.065789357,3591216.2579394667,-242.32321121812132,-4938.612639163808,6852.469046216184,0.9945238305824491,-1.4897696265662872e-07,1.5006293086426523e-06,0.10451004928397155
0.01,1.1542099084490992e-06,0.000597254557394233,-0.007399623991071753,-45.3056568593738,51.86886671713555,5.150597863146306,-1656204.1402934815,5097215.3727150345,3591250.5207487815,-242.032070028408,-4938.617089821304,6852.654679611649,0.9945257612942617,-2.786366022634135e-07,2.9898702476292977e-06,0.10449167485045098
0.015,7.644104650471264e-06,0.0005989175620420693,-0.007411048870472837,-45.31880681519697,51.85736859771111,5.1389404821973965,-1656205.3497260748,5097190.679618487,3591284.784486381,-241.7409672615379,-4938.621529066491,6852.840360078126,0.9945276941162787,-4.3184250581229196e-07,4.475129214277394e-06,0.10447327704032403
0.02,1.1856873828859431e-05,0.0005807979133067296,-0.007373408254004035,-45.31913332970845,51.86437620923439,5.139157339189483,-1656206.5577030368,5097165.9864997445,3591319.0491521778,-241.4498175869428,-4938.625968191459,6853.025958844583,0.9945296295791787,-5.693469357649173e-07,5.9662179789192e-06,0.10445485078818409
0.025,1.9890103682217235e-05,0.0006228498733127912,-0.007403893289056471,-45.332439204128455,51.85043552747625,5.139858272057068,-1656207.7642242298,5097141.293358751,3591353.314746063,-241.15865964435147,-4938.630429048887,6853.211595211721,0.9945315548711632,-6.91644781650685e-07,7.413355586668179e-06,0.10443651808687587
0.03,1.1492855880381912e-06,0.0005990360433816355,-0.00738771909543082,-45.33574698748335,51.85970452157583,5.1415829968157745,-1656208.969289565,5097116.60019559,3591387.581267987,-240.86747437604302,-4938.634835150237,6853.397174364867,0.9945334877801673,-8.049493415538518e-07,8.96714554846461e-06,0.10441810955365192
0.035,-1.3713512703703564e-06,0.000582191029752853,-0.007384052991462585,-45.33955402914,51.85363420995433,5.136945145831999,-1656210.1728989142,5097091.9070103625,3591421.848717928,-240.57626530417883,-4938.639256004184,6853.582801954699,0.9945354161251545,-9.586329787870905e-07,1.0456834209387965e-05,0.10439974119939857
0.04,-1.1161668599215377e-05,0.0005998471802819407,-0.007392809182285408,-45.3310270285074,51.84277674730542,5.1377461140955045,-1656211.3750522027,5097067.213803021,3591456.1170959263,-240.2850501310865,-4938.643680710255,6853.76839751925,0.9945373431724742,-1.1141871387693755e-06,1.1903982584324651e-05,0.10438138192460475
0.045,-8.475405443223351e-06,0.0006004718386781976,-0.007381546438474821,-45.33965730089825,51.84005859275347,5.145914850846002,-1656212.5757495775,5097042.520573563,3591490.386401839,-239.99389974457816,-4938.648102375848,6853.953967452149,0.9945392721627102,-1.298691082885402e-06,1.339247536624576e-05,0.1043630008433153
0.05,-8.155710929470737e-06,0.0005940028813362799,-0.007400686827944424,-45.34794512916879,51.82575117095324,5.143524922534714,-1656213.7749911568,5097017.827322119,3591524.656635634,-239.70273194469948,-4938.652475114187,6854.139550607207,0.9945411978729574,-1.4766786420186684e-06,1.4883222164613147e-05,0.10434464772920687
0.055,-2.28425063541955e-05,0.0006193608350937578,-0.007393187400638259,-45.35220642062633,51.8414580289448,5.146001142782463,-1656214.9727768765,5096993.134048895,3591558.9277971876,-239.41155596136363,-4938.656814812697,6854.325070755055,0.9945431282346562,-1.652184536720651e-06,1.6357968171774928e-05,0.10432624698948677
0.06,-1.539348264966947e-05,0.0006223667376387472,-0.007375120763859709,-45.35132214225457,51.82886776971038,5.144776221360218,-1656216.169106619,5096968.44075391,3591593.199886531,-239.12034105764297,-4938.661179071204,6854.510666690457,0.9945450562968982,-1.8708205031921423e-06,1.789193260529973e-05,0.10430786486060586
0.065,-1.0656518824916329e-05,0.0006137936440819936,-0.0073847846395589944,-45.356928378447584,51.83020255595792,5.1324144776507845,-1656217.363980365,5096943.747437141,3591627.4729037425,-238.82915734492073,-4938.665528550251,6854.696217746489,0.9945469793064841,-2.0717185348495945e-06,1.94353133603666e-05,0.10428952761579022
0.07,1.7656430960575096e-05,0.0006069711161568623,-0.007385960822264217,-45.36355127536962,51.822125142652595,5.141830760065002,-1656218.5573980983,5096919.0540985055,3591661.7468486456,-238.53793600760895,-4938.669925490285,6854.881743655177,0.9945489044951956,-2.2586039929955576e-06,2.0958613237269014e-05,0.10427116630709372
0.075,2.0239471568083754e-06,0.000604107371212421,-0.0074090637779908024,-45.36423521956052,51.821311664062605,5.142207065592503,-1656219.7493597325,5096894.360738041,3591696.0217211707,-238.24671764246756,-4938.674260485366,6855.067266276916,0.9945508296496721,-2.373314496659099e-06,2.2472330316891706e-05,0.10425280203673538
0.08,-1.2898447287391313e-05,0.0006164263398266702,-0.007392929026836776,-45.36568676133531,51.81243534066684,5.133241682974672,-1656220.9398652865,5096869.667355895,3591730.2975213234,-237.95550393455608,-4938.678597970307,6855.252794911841,0.9945527604831491,-2.5261481632015987e-06,2.3974852576326088e-05,0.1042343802887172
0.085,1.605131262683403e-05,0.0006095259873946817,-0.007386469826077353,-45.38098927038833,51.80950476162371,5.138315870183283,-1656222.1289147818,5096844.973952012,3591764.574248986,-237.66429425696217,-4938.682954840701,6855.438270099918,0.9945546867685106,-2.7192937834184935e-06,2.5504116023653418e-05,0.10421599862274224
0.09,-7.576459829953257e-06,0.0006071670437457498,-0.007390941096103907,-45.38279496489586,51.80195492798388,5.138613366667995,-1656223.316508102,5096820.280526474,3591798.8519040197,-237.37303374159353,-4938.687260725992,6855.623743286817,0.9945566110298522,-2.838660874555056e-06,2.7023765131847886e-05,0.1041976329792258
0.095,-3.1026359782838704e-06,0.0005943849120027992,-0.007394801323651335,-45.38413297956139,51.79431921744776,5.151328719732314,-1656224.5026451491,5096795.587079442,3591833.1304863626,-237.08178509635505,-4938.691551731531,6855.809193988976,0.9945585361142747,-3.016161669178484e-06,2.8531394046619294e-05,0.1041792561842004
0.1,6.193136336600672e-06,0.0005959388388536899,-0.007418608460436896,-45.3878526042962,51.799415355313016,5.134805264818172,-1656225.687326028,5096770.893611114,3591867.4099959903,-236.79056647109655,-4938.695779703905,6855.994656969055,0.9945604618630557,-3.1792099564289325e-06,3.0008406675989208e-05,0.10416086975507496
0.105,-7.064403005367933e-06,0.0006063140589165316,-0.007393984691266002,-45.38903986451473,51.792502363402434,5.143383474405815,-1656226.8705507102,5096746.200121455,3591901.690432883,-236.49930644386043,-4938.700084049506,6856.180100059113,0.9945623934680158,-3.3195516555220675e-06,3.149170343062414e-05,0.10414242409520297
0.11,-9.468725436622436e-06,0.0005877407936147156,-0.007404090598830745,-45.39164175115259,51.78456317345866,5.136329665287127,-1656228.0523191525,5096721.506610385,3591935.971797,-236.2080705064231,-4938.70434365404,6856.365546952793,0.9945643183178854,-3.4955562914273815e-06,3.2997345707274564e-05,0.10412403962503688
0.115,-9.17288508816546e-06,0.0006121505280671057,-0.0073941704532543735,-45.39461563435244,51.781887100474826,5.132247267818087,-1656229.2326314142,5096696.813077989,3591970.254088239,-235.91683415994552,-4938.7086148614735,6856.550948537027,0.9945662454574181,-3.6727050845133056e-06,3.445618124747985e-05,0.10410562999193447
0.12,6.533189436817732e-07,0.0006295590831291342,-0.0074025220216653465,-45.40153863267636,51.768553972447386,5.12957648400903,-1656230.4114874743,5096672.119524209,3592004.5373064457,-235.625589912348,-4938.712897226625,6856.736334142312,0.9945681696704441,-3.8554704167054734e-06,3.5975786608380605e-05,0.10408724498833126
0.125,-1.455523236111257e-05,0.0006165646400132816,-0.0073943090665593465,-45.39979170322018,51.773504368173754,5.130236731545155,-1656231.5888873027,5096647.425949084,3592038.821451434,-235.33434140911166,-4938.717152693352,6856.921661114186,0.9945700957125927,-4.018334445650053e-06,3.754123381951388e-05,0.10406883918230732
0.13,9.92324042762209e-06,0.0006135342567919348,-0.007400711373141661,-45.40212985657574,51.76243738989569,5.128257595129885,-1656232.764830902,5096622.732352633,3592073.1065231375,-235.04309826091716,-4938.721427710414,6857.107020379162,0.9945720192763664,-4.215631836682584e-06,3.907041454818836e-05,0.10405045376288531
0.135,-3.158148473205634e-06,0.0005862424875805929,-0.007383937993782018,-45.401114393134314,51.75366551365846,5.132235980911727,-1656233.939318318,5096598.038734844,3592107.3925215285,-234.75186810072057,-4938.725687729469,6857.292336068407,0.9945739441635855,-4.351277559472477e-06,4.059842785053632e-05,0.10403205238638338
0.14,8.74964414443139e-06,0.0006135504228487643,-0.007382818754981078,-45.40324593637937,51.74727005512409,5.135237610704819,-1656235.1123496615,5096573.345095822,3592141.6794464616,-234.46066937481385,-4938.729921399588,6857.477637043249,0.9945758643490835,-4.512349552806387e-06,4.205517990568794e-05,0.10401369268165586
0.145,-1.1544438060777389e-05,0.0006190284103054564,-0.0073867418396345134,-45.412310100455485,51.74975462544883,5.138509856464511,-1656236.2839250409,5096548.651435689,3592175.9672978725,-234.16948237586496,-4938.734131522422,6857.662927465653,0.9945777838996999,-4.6509144170676e-06,4.358292792604807e-05,0.10399533572261502
0.15,-6.959190666646374e-06,0.0006008759095001136,-0.007375990663494556,-45.42486872427149,51.74826579993165,5.137080184067357,-1656237.4540443975,5096523.957754553,3592210.256075787,-233.87826020820853,-4938.738322961952,6857.848238186606,0.9945797041280824,-4.841364028280108e-06,4.511902037267032e-05,0.10397696897549648
0.155,8.686847106785677e-07,0.0006221793529813634,-0.007388455147282517,-45.41723851461088,51.72947875216915,5.1318614181662365,-1656238.622707519,5096499.264052501,3592244.5457802247,-233.58698847842626,-4938.742498003681,6858.033536948271,0.9945816212228845,-5.015692835112093e-06,4.661116956206347e-05,0.10395862892468534
0.16,4.937719752013452e-06,0.000624965395234244,-0.0073555568728501395,-45.42850482614951,51.73496699988309,5.131031422315309,-1656239.7899144508,5096474.570329571,3592278.8364109676,-233.2957842678241,-4938.746673736498,6858.2187602842205,0.9945835412136912,-5.176096132184411e-06,4.815832305053766e-05,0.10394025784467652
0.165,7.5650515535524075e-06,0.0006180895812508014,-0.0073936681867785535,-45.427229447620014,51.722039351322316,5.139385285567176,-1656240.9556652224,5096449.876585764,3592313.1279678755,-233.00452428954475,-4938.750849281337,6858.40400275639,0.9945854523153327,-5.327101933324976e-06,4.97134616690551e-05,0.10392196852878972
0.17,1.0253331159905852e-05,0.0006210728833005899,-0.007390893391297351,-45.42908959718358,51.72445964666844,5.134038026630774,-1656242.1199598082,5096425.18282121,3592347.4204509472,-232.7133100707036,-4938.754972223617,6858.589226068551,0.9945873729789017,-5.469793333974257e-06,5.125218589532736e-05,0.10390358441469716
0.17500000000000002,-1.1021711358815166e-05,0.0006105088002715684,-0.007386920629327829,-45.42930914251686,51.71346015318303,5.125718024470498,-1656243.2827982884,5096400.489035967,3592381.7138601416,-232.42208199093486,-4938.759125180451,6858.774451511861,0.9945892925792725,-5.606574994270128e-06,5.2799026333004605e-05,0.1038852071639245
0.18,-1.601641924911844e-05,0.0006009071555224755,-0.007387621303771808,-45.44181297680605,51.69875091140683,5.127742575596179,-1656244.4441806637,5096375.795229922,3592416.0081953146,-232.1308681134838,-4938.763292615378,6858.959617753256,0.9945912108072251,-5.793512322076411e-06,5.4314074093061136e-05,0.10386683975857999
0.185,-1.1953004015557388e-05,0.0005929387799814894,-0.007392063537085739,-45.43710930768076,51.69970032421414,5.132050801984347,-1656245.6041069177,5096351.101403191,3592450.3034561793,-231.83963349591605,-4938.76739998262,6859.144728128365,0.9945931288768406,-5.990375743212754e-06,5.580395058431897e-05,0.10384847057617658
0.19,7.511459011163726e-06,0.0005997586615083365,-0.007397389920511316,-45.44166379746595,51.69577702363179,5.130295096344578,-1656246.762577075,5096326.407555916,3592484.5996426675,-231.54842942225238,-4938.771509509255,6859.329867253903,0.9945950477592443,-6.175067410815989e-06,5.7275068709620306e-05,0.10383009031211272
0.195,7.540467870782715e-06,0.0006158153000509513,-0.0073877858066281835,-45.43950207813791,51.686582816137346,5.124058573100246,-1656247.9195911875,5096301.713688105,3592518.896754812,-231.2572156074259,-4938.7756148983635,6859.514990489338,0.9945969676814427,-6.313131964926857e-06,5.876819677635829e-05,0.10381169676545401
0.2,2.9207151551323555e-06,0.0006155117684155217,-0.007389535082310462,-45.44208015762957,51.6795569208797,5.130147168310233,-1656249.0751492917,5096277.01979973,3592553.1947924625,-230.96602600358966,-4938.77973560492,6859.700069698352,0.9945988847667177,-6.45529014274448e-06,6.0301257213126785e-05,0.1037933270633958
0.20500000000000002,-1.407228879070136e-05,0.000601268698725785,-0.007393532873387378,-45.44763041834118,51.67730974939555,5.129529837923533,-1656250.2292514846,5096252.325890845,3592587.493755497,-230.67485123284288,-4938.783818196915,6859.885144080393,0.9946008019641563,-6.6088568229002264e-06,6.18323641216211e-05,0.10377495297680946
0.21,3.939368008949552e-06,0.0005926053548488943,-0.007402477689905749,-45.45254468778366,51.66311027206914,5.1160491610530245,-1656251.3818977645,5096227.6319615645,3592621.793643886,-230.3836606695602,-4938.787893898913,6860.070211724124,0.9946027198587667,-6.80098207240354e-06,6.332364690100777e-05,0.10375656891689372
0.215,2.7402414247861636e-05,0.0006061716400997707,-0.007379061242547349,-45.4481642687471,51.662753138008036,5.132393048967655,-1656252.5330880724,5096202.938011861,3592656.0944573875,-230.09246249984838,-4938.791987477827,6860.255188714809,0.9946046397328283,-6.94607543147502e-06,6.479806011232348e-05,0.10373816257720411
0.22,-2.6762852636852316e-06,0.0005946292969073237,-0.00738694396574624,-45.45301152118863,51.6524578847989,5.131531290270586,-1656253.6828225066,5096178.244041813,3592690.3961959155,-229.8013112521651,-4938.796032119534,6860.440222551541,0.99460655319036,-7.036342211922243e-06,6.631229146689837e-05,0.10371981442309681
0.225,-1.4740652000003152e-05,0.0006203329575137291,-0.007372336947127681,-45.45189344278143,51.64392968490498,5.125559575206227,-1656254.8311011891,5096153.550051597,3592724.698859514,-229.51016173793738,-4938.800053879234,6860.625216923606,0.9946084683521769,-7.198408551641217e-06,6.779002304179756e-05,0.10370144663808951
0.23,-2.110627334672385e-06,0.0006197717556865899,-0.007384834863914348,-45.45551083852834,51.64557235229535,5.132831371775305,-1656255.9779241707,5096128.85604124,3592759.0024479814,-229.21903085988183,-4938.804089278679,6860.810169792438,0.9946103793816679,-7.397134483623983e-06,6.932853982189213e-05,0.10368311513978908
0.23500000000000001,1.874377467190098e-05,0.0006126702025288933,-0.007366678609915246,-45.46048814349518,51.63188741820726,5.1220721845145984,-1656257.1232914873,5096104.1620107675,3592793.3069612943,-228.92789581929333,-4938.808099549893,6860.9951553865885,0.994612293310218,-7.5643122272894194e-06,7.086893470495505e-05,0.10366475252738584
0.24,-1.7073269474382597e-06,0.0005921533805334983,-0.0073835354418937986,-45.448693958569294,51.62598776546409,5.119019667926462,-1656258.2672031154,5096079.467960224,3592827.6123993327,-228.63675542610798,-4938.812117971304,6861.180059980493,0.9946142021944704,-7.677791188188263e-06,7.239707634298118e-05,0.10364643502201225
0.245,1.4171767496584284e-05,0.0005848065308729567,-0.007395667445657332,-45.45478975903232,51.61689880536027,5.123446363428586,-1656259.409659205,5096054.773889513,3592861.91876186,-228.34568037762975,-4938.816166464451,6861.364951015425,0.9946161151095413,-7.83680934908349e-06,7.386890261688635e-05,0.10362807557015273
0.25,2.7576011630547837e-06,0.0006032582907492493,-0.007403578492840592,-45.46343224041516,51.59880465729946,5.121811206137449,-1656260.550659921,5096030.079798668,3592896.2260487904,-228.05460602312453,-4938.820171453053,6861.549821176996,0.9946180308277157,-7.954442389935691e-06,7.53265741900598e-05,0.1036096859131971
0.255,-6.866667592901996e-06,0.0006125052716978781,-0.007389961255611246,-45.46822395274975,51.60353069854969,5.114467870878964,-1656261.6902052602,5096005.385687912,3592930.5342598804,-227.7635296454689,-4938.824131022629,6861.734614834244,0.9946199482487729,-8.105238209543434e-06,7.682717016717842e-05,0.10359127655116315
0.26,7.294900017956631e-06,0.0006137928321914974,-0.007357103777415984,-45.46518575485528,51.58826244475258,5.119021460075123,-1656262.828295133,5095980.691557265,3592964.8433949472,-227.47241950808902,-4938.828127726239,6861.919411893377,0.9946218617988822,-8.28235740155488e-06,7.834826699734077e-05,0.10357290101506732
0.265,-3.4465847720510945e-07,0.0005992439513653806,-0.007378892363526539,-45.46187246923368,51.587002473654444,5.111411451842628,-1656263.964929588,5095955.997406732,3592999.153453905,-227.18136238260328,-4938.832085127218,6862.104171187174,0.9946237665008542,-8.424590034001312e-06,7.987623295717856e-05,0.10355460714264804
0.27,1.8618199340914174e-05,0.0006235730459267274,-0.007385615028660526,-45.46510980830023,51.57466205641052,5.1233636361110495,-1656265.1001087895,5095931.30323631,3593033.4644366223,-226.8903183223488,-4938.836083679665,6862.288915731235,0.9946256765065815,-8.582056721565736e-06,8.136604399552087e-05,0.1035362590580729
0.275,1.0700717831638588e-05,0.0005891233328130356,-0.007372963452237764,-45.46667684668236,51.574054863868824,5.112318682537109,-1656266.2338328436,5095906.609046082,3593067.776343036,-226.5993033122689,-4938.8400075100335,6862.473649697357,0.9946275879067601,-8.698669769053858e-06,8.292125907546171e-05,0.10351789421727237
0.28,4.58462662970541e-06,0.00061032634020168,-0.007374871877134615,-45.4693013447174,51.55376862571307,5.127272053414228,-1656267.3661017867,5095881.91483612,3593102.089173055,-226.30827396092482,-4938.843977476498,6862.658357837527,0.994629495698949,-8.826052150292548e-06,8.438876381194602e-05,0.10349956080241048
0.28500000000000003,-1.525938259820227e-05,0.0006043964366679932,-0.007376375592748774,-45.46330917150754,51.54835442243718,5.105332553366453,-1656268.4969157085,5095857.220606566,3593136.4029265298,-226.0172947363795,-4938.847843992842,6862.843032076415,0.9946314036400791,-8.974129297786285e-06,8.590740878693164e-05,0.10348122260752561
0.29,-5.02002647073632e-06,0.000606709144261479,-0.007376177588111364,-45.464649990151095,51.53645040154331,5.123174728860057,-1656269.62627477,5095832.526357446,3593170.717603202,-225.72632978480803,-4938.851804197419,6863.02763694461,0.9946333116305858,-9.17001636786638e-06,8.740617482224693e-05,0.10346288064250658
0.295,1.8740872163666968e-06,0.0005875337101601458,-0.007396728219303485,-45.47138722448247,51.53918728891824,5.116688512846361,-1656270.754179117,5095807.832088757,3593205.033202922,-225.4354091057243,-4938.855671369118,6863.212251081162,0.9946352192290919,-9.341040578284403e-06,8.891334005541045e-05,0.10344453913213136
0.3,-8.873091923306328e-06,0.000599989189146993,-0.007355171745930229,-45.47115929522574,51.534877365637236,5.105242812325241,-1656271.8806287665,5095783.137800669,3593239.3497257032,-225.1444506607291,-4938.859563721984,6863.396861258216,0.9946371318052616,-9.48996754800326e-06,9.037460626892783e-05,0.10342614648421256
0.305,2.390127049759734e-05,0.0006074818447432426,-0.00737430539213973,-45.47645180234684,51.51966195362403,5.111183611393268,-1656273.0056236235,5095758.443493012,3593273.6671714336,-224.85349212880723,-4938.863499087438,6863.581430976816,0.994639033292897,-9.668829539419752e-06,9.186406629386596e-05,0.10340785713705897
0.31,-9.447895790850825e-06,0.0006007507575227266,-0.007372340450929435,-45.46731215680287,51.51061776235048,5.110006963598594,-1656274.1291637311,5095733.749165833,3593307.985539911,-224.56255094546808,-4938.867372602211,6863.765959862296,0.99464093938658,-9.76813627003958e-06,9.338062986071543e-05,0.10338952016922823
0.315,1.8417854248545658e-07,0.0006157775177796847,-0.007364079841951175,-45.472933500653056,51.50126233287179,5.11316187697737,-1656275.2512492868,5095709.054819261,3593342.304830974,-224.2716713522946,-4938.871256123785,6863.950465391321,0.9946428446328973,-9.948628844100773e-06,9.487183602056986e-05,0.10337118806000821
0.32,-2.1475756531088353e-06,0.0005956472110959479,-0.007388345976986797,-45.473852622869636,51.48829387457578,5.114486653970421,-1656276.3718804487,5095684.360453367,3593376.625044502,-223.98079338432902,-4938.875101501078,6864.134945807656,0.994644747401319,-1.0109051606150796e-05,9.640289719979768e-05,0.10335287645370438
0.325,3.8505848264151815e-06,0.0005982254615983456,-0.007376312400028724,-45.4764221806736,51.47649350501963,5.117909282739543,-1656277.4910572881,5095659.66606832,3593410.9461803297,-223.68994232961228,-4938.878917346033,6864.31938534952,0.9946466561039561,-1.0270077067940955e-05,9.788329898948574e-05,0.10333450447262925
0.33,1.979973788042811e-06,0.000594168431721441,-0.0073555591974514434,-45.485816141258624,51.465625033037306,5.113014474372363,-1656278.6087799224,5095634.97166429,3593445.2682382762,-223.3991113654629,-4938.882694701967,6864.503793228168,0.9946485613563975,-1.0416850511461797e-05,9.937166171752639e-05,0.10331616237748513
0.335,-1.7284231268181545e-05,0.0005973458969824538,-0.007374878693236636,-45.48153994082611,51.46705100125281,5.1079381903571495,-1656279.7250483446,5095610.277241417,3593479.5912181195,-223.10825757673547,-4938.886454407695,6864.688144148625,0.9946504609099429,-1.056722240526164e-05,0.00010084945349390448,0.10329787185300439
0.34,-4.1918856514261176e-05,0.0005995434861255707,-0.007341210629204574,-45.48043280064043,51.45542818898683,5.105858231556636,-1656280.8398625373,5095585.582799648,3593513.9151197276,-222.81741948682847,-4938.8902534045355,6864.872499089568,0.9946523651119007,-1.0766322605943483e-05,0.0001023301710152316,0.10327953325768169
0.34500000000000003,7.144865988733182e-07,0.000591493337204346,-0.007354484965808975,-45.48066600335555,51.44750062085078,5.102922833398828,-1656281.9532226124,5095560.888338905,3593548.2399430024,-222.5266105434722,-4938.894043577384,6865.056810807065,0.9946542602807733,-1.1027238825416903e-05,0.00010380999336951159,0.10326127835347103
0.35000000000000003,-5.301033634471267e-06,0.0006040779682654121,-0.007381082791629164,-45.47941861310727,51.43342165193807,5.112590352676159,-1656283.065128681,5095536.193859211,3593582.565687756,-222.23581687982104,-4938.897833969245,6865.241090706,0.9946561585418733,-1.1180066723628038e-05,0.00010528080346905435,0.103242990394905
0.355,-6.606291695732793e-06,0.0005962082814930655,-0.007365349352812393,-45.47320134480128,51.42507285068029,5.104587773797784,-1656284.1755809044,5095511.499360717,3593616.892353859,-221.94507250825384,-4938.901563866977,6865.425350365917,0.9946580633249041,-1.1351108241584419e-05,0.00010678135359045545,0.10322463626308373
0.36,-1.2348868632203895e-05,0.0006049653571376082,-0.007379912296176706,-45.481153224250576,51.42222741951667,5.100899345878093,-1656285.2845795022,5095486.804843491,3593651.2199411546,-221.65436660184727,-4938.9053262728985,6865.609567885841,0.9946599637096009,-1.1523360405323198e-05,0.0001082619981663318,0.10320632122000782
0.365,-1.7024294557636451e-06,0.000578455420783324,-0.0073663216740771425,-45.47393428656051,51.41375489133436,5.110458330068588,-1656286.3921244966,5095462.110307457,3593685.5484494884,-221.36363122173154,-4938.909087573185,6865.793765578571,0.9946618675090793,-1.1712155748971434e-05,0.00010976293639140597,0.10318796992999783
0.37,9.998983588074593e-07,0.0006176548626405559,-0.007345640838663556,-45.47690597673004,51.39700446928857,5.1031484705414485,-1656287.4982159785,5095437.415752703,3593719.8778788284,-221.07296152190335,-4938.912813938645,6865.977970577686,0.9946637674700395,-1.186763457526235e-05,0.0001112007003810007,0.10316965239774052
0.375,-1.863146084270253e-05,0.0005990734046146806,-0.007364792075418429,-45.46740181407611,51.38863083522672,5.102691976903479,-1656288.6028541457,5095412.721179338,3593754.2082289886,-220.7823053206999,-4938.916531959039,6866.162093439588,0.9946656617474837,-1.2026498361266046e-05,0.00011273663760317037,0.10315138625464117
0.38,-4.271039666210179e-06,0.0005946648431963094,-0.007360193609371662,-45.466153278482246,51.3744564378923,5.096015364151224,-1656289.706039189,5095388.02658736,3593788.539499717,-220.49171199040467,-4938.9202593893615,6866.34619791932,0.9946675606296469,-1.2229392380147821e-05,0.00011422130586075703,0.10313307245982312
0.385,-1.4090078772701687e-05,0.0006230067645561485,-0.007371364914948444,-45.471204977135926,51.37281555450238,5.098456505627289,-1656290.8077713368,5095363.331976735,3593822.871690802,-220.20114716283365,-4938.923990548708,6866.530236068761,0.9946694579886743,-1.2395438797788619e-05,0.00011569871417329947,0.10311477006073154
0.39,-1.932011246885316e-05,0.0006064980521928691,-0.007368893892279701,-45.48411138547742,51.36183720871077,5.098047320400937,-1656291.9080506335,5095338.637347495,3593857.2048020894,-219.91057149429142,-4938.927705154839,6866.714278877702,0.9946713578794254,-1.2593211364986136e-05,0.00011724406798914662,0.10309643984900617
0.395,7.4043350746768695e-06,0.000609609617231908,-0.007357157389493418,-45.4727288388318,51.3532212801673,5.092505813578836,-1656293.0068769702,5095313.94269979,3593891.538833471,-219.61996318561955,-4938.931376930089,6866.898273847494,0.9946732567979313,-1.2799733641715136e-05,0.0001187470219897175,0.10307811574872795
0.4,7.804614718302548e-06,0.0005921972960493278,-0.007341922827471454,-45.47674929814577,51.336205971217396,5.101062122769538,-1656294.1042504283,5095289.248033645,3593925.873784748,-219.32942007617348,-4938.935081520234,6867.082236827599,0.9946751523525937,-1.2940599032362215e-05,0.00012026460056590823,0.10305982079021504
0.405,-1.0430238606857757e-05,0.0005975243337066704,-0.007364277129634667,-45.476578143967195,51.332293198270925,5.094955129608319,-1656295.200171245,5095264.55334916,3593960.2096557403,-219.03890657640534,-4938.938712402539,6867.266160081354,0.9946770436492796,-1.3075978190875263e-05,0.0001217389837178981,0.10304156368072027
0.41000000000000003,-6.990586531644474e-06,0.0005933748733040356,-0.007351608375520732,-45.47148869769517,51.31689894804744,5.100012475432401,-1656296.2946395085,5095239.858646464,3593994.5464462885,-218.74839877717335,-4938.942365952493,6867.450059296874,0.9946789403639757,-1.3258080889128153e-05,0.0001232219154333889,0.10302325095327473
0.41500000000000004,-7.339141238256119e-07,0.0006063880205624857,-0.007386776454261189,-45.47147977900352,51.30630514937241,5.093168669997625,-1656297.3876553902,5095215.163925594,3594028.8841562453,-218.45795392049857,-4938.945982076578,6867.633923301263,0.9946808334783483,-1.343055757924308e-05,0.0001246954149849773,0.10300496969317599
0.42,1.7096569846032106e-06,0.0006174182828971769,-0.007344098657304743,-45.46563581918434,51.294106180801236,5.087692525004918,-1656298.479219088,5095190.469186618,3594063.222785388,-218.1675252520303,-4938.949608187775,6867.817733963525,0.9946827353052511,-1.3590837794798968e-05,0.00012620288430442502,0.10298660094296273
0.425,-2.553649811017759e-06,0.0006010928087605882,-0.007344586330647124,-45.46710568629099,51.280862961805376,5.095863202547102,-1656299.5693307603,5095165.77442948,3594097.562333457,-217.87714360057353,-4938.953247251985,6868.0014935981635,0.9946846258010653,-1.374786801864757e-05,0.00012773841319733455,0.10296833828361329
0.43,-1.4658417361913757e-06,0.0006004371583354376,-0.007328579845741378,-45.46792838663088,51.26632966976618,5.0984465659204865,-1656300.6579906081,5095141.079654291,3594131.9028002657,-217.58679558878077,-4938.95682797757,6868.185229879657,0.9946865160898467,-1.3911297490416286e-05,0.00012923224782075893,0.10295007437853176
0.435,-1.4964248093887212e-05,0.0006053334320123651,-0.007347677372567629,-45.466978804712106,51.26956366581792,5.082375294383938,-1656301.7451987953,5095116.384861294,3594166.244185647,-217.2964792863072,-4938.960370787917,6868.368922486169,0.9946884019223399,-1.4071847967922862e-05,0.0001307247325153134,0.10293185024184269
0.44,-1.9457082580372682e-05,0.0005838513714468248,-0.007349753367688222,-45.467909740988986,51.247722102900184,5.094879694212309,-1656302.8309553594,5095091.690050384,3594200.5864894353,-217.00614636841794,-4938.963993465896,6868.552592827984,0.9946902923300933,-1.4267231408908815e-05,0.00013222591862046228,0.10291357858429598
0.445,-1.1098624401799924e-07,0.0006051705581122044,-0.007357408152162845,-45.459268945153525,51.23031444433339,5.084048002490533,-1656303.915260402,5095066.995221594,3594234.929711461,-216.71587068422673,-4938.967522199371,6868.736217488934,0.994692182940977,-1.4468260989089723e-05,0.00013367252867970002,0.10289530173160684
0.45,1.1013266549787038e-05,0.0005860078366550373,-0.0073584543191598396,-45.46287680286084,51.2278487654741,5.08286645758515,-1656304.9981142215,5095042.300375092,3594269.273851398,-216.42565708886252,-4938.9710788299835,6868.919757305661,0.9946940751761644,-1.4626668705812266e-05,0.00013517713004343928,0.10287700580129279
0.455,-1.5379709646128248e-05,0.0006059484671536925,-0.007361100666471411,-45.46850871536176,51.21999258468192,5.091131147975677,-1656306.0795169543,5095017.605510809,3594303.618909015,-216.13543595092534,-4938.974634247521,6869.103289536603,0.9946959673485201,-1.4752485191723697e-05,0.0001366369397836892,0.10285870723134116
0.46,6.635604522786352e-07,0.0006064439373958286,-0.0073374980400704145,-45.45898448755733,51.19817329129117,5.087669269273265,-1656307.1594685942,5094992.910628887,3594337.964884281,-215.84522011967138,-4938.978134731768,6869.286817004405,0.9946978598546368,-1.4949062712729599e-05,0.0001381395496731064,0.10284040205384203
0.465,2.3551022011287502e-06,0.0005984316316453144,-0.007320785095389264,-45.46619863669113,51.196525411973084,5.0815098914588495,-1656308.237969364,5094968.215729485,3594372.3117769817,-215.55508781326705,-4938.981625773341,6869.470263106432,0.9946997459548503,-1.5105863947331995e-05,0.00013964751724650806,0.10282215552953589
0.47000000000000003,1.0614106440587954e-05,0.0005888939381686834,-0.007361465128943956,-45.46198239572355,51.19088787490918,5.085709608539249,-1656309.3150193936,5094943.520812597,3594406.6595868594,-215.264923927206,-4938.985129648493,6869.653687945188,0.9947016274255682,-1.5256393295285934e-05,0.00014113599562755539,0.10280395053109291
0.47500000000000003,-9.235653857008702e-06,0.0006162710118513106,-0.007334247459936241,-45.45823897784796,51.17979609318654,5.076081063565717,-1656310.3906187038,5094918.825878223,3594441.008313864,-214.97480016405788,-4938.988619905412,6869.8371139584415,0.9947035190179014,-1.5383947597798434e-05,0.00014260287715677704,0.10278564433400685
0.48,-5.893114644304196e-06,0.0005991819067543305,-0.007343439417127461,-45.458286599245106,51.16503850304045,5.075108654012877,-1656311.4647674707,5094894.13092633,3594475.357957849,-214.6847066204988,-4938.992137644967,6870.020479991134,0.9947054032678304,-1.556788868323059e-05,0.00014413273918716563,0.10276740579180435
0.485,2.8752034377581424e-06,0.0005862626042489175,-0.007329549081644344,-45.45110878934945,51.148167959873696,5.0786654398984,-1656312.5374658473,5094869.435956904,3594509.7085185293,-214.3946440650134,-4938.995632531405,6870.203792136149,0.9947072895484999,-1.5739130463513717e-05,0.00014562096300822354,0.1027491443560083
0.49,-1.5725354429306572e-05,0.0006000236355252784,-0.007323066816626041,-45.45370014345786,51.12952421441703,5.07983816064589,-1656313.608714094,5094844.740970081,3594544.059995661,-214.1046544972908,-4938.9990967615,6870.38706060093,0.9947091719293621,-1.5885243788678228e-05,0.00014707931235853747,0.10273091742478282
0.495,-6.469320077546296e-06,0.0006187654397482211,-0.007333188291020793,-45.45476975677298,51.12477044671641,5.0753725359279915,-1656314.678512466,5094820.04596605,3594578.4123889706,-213.8146943212429,-4939.0025155641715,6870.570263233461,0.9947110523037225,-1.608114429715459e-05,0.0001485671053457464,0.10271270658508257
0.5,-2.7165507776467364e-06,0.00060585561507021,-0.0073294393880588135,-45.450324741487144,51.11899284349707,5.077647236628612,-1656315.7468610464,5094795.350944895,3594612.7656982336,-213.52473786473095,-4939.005946063807,6870.753441906703,0.9947129349343345,-1.6258843413916207e-05,0.00015010388135618317,0.10269447053662231
0.505,-2.418820471416689e-07,0.0005994415976082565,-0.007335796005038772,-45.46174301617502,51.09931856561402,5.0723360457696876,-1656316.8137599418,5094770.655906604,3594647.1199233783,-213.2348203433454,-4939.009370677887,6870.936616008474,0.9947148162709835,-1.6423894378928657e-05,0.00015160951701588183,0.10267624377524583
0.51,-3.353387390198604e-06,0.0005697685874852817,-0.007351668224983333,-45.44869142496462,51.088611588994816,5.075023008297714,-1656317.8792092083,5094745.96085129,3594681.4750641547,-212.9448862363411,-4939.012754892205,6871.119694506425,0.9947166989053214,-1.658114735551617e-05,0.00015309983729200964,0.10265800117090502
0.515,-6.81996544676129e-06,0.000604039222879358,-0.007331781892627561,-45.44451738641991,51.06833156136095,5.076040565809003,-1656318.9432090216,5094721.2657790575,3594715.831120283,-212.65503908288633,-4939.016138031435,6871.302756854069,0.994718585287003,-1.6738528637602217e-05,0.0001545155677092726,0.10263971906325778
0.52,-1.4141020186253189e-05,0.00058939736520108,-0.0073145081346254635,-45.43777044030277,51.06431270012753,5.0688965195335145,-1656320.0057597551,5094696.570689996,3594750.188091555,-212.36525437559175,-4939.019486559168,6871.485752022582,0.9947204662152365,-1.691331672716577e-05,0.00015601563347971017,0.1026214863739779
0.525,-4.147796368329235e-06,0.000607368910197053,-0.007353868068039903,-45.4417294839426,51.04087867913231,5.069739194928711,-1656321.0668616502,5094671.875584092,3594784.5459777485,-212.07550362250888,-4939.022875087883,6871.668725346082,0.994722342381601,-1.710254765804668e-05,0.00015747741029536273,0.10260329660994912
0.53,2.46937572565681e-05,0.0006009007146172298,-0.0073224203854104445,-45.43856031700746,51.0321491422815,5.0637782074285855,-1656322.1265148702,5094647.18046139,3594818.90477859,-211.78578436542057,-4939.026205702208,6871.851611286872,0.99472422830082,-1.72715527207824e-05,0.0001589864404624347,0.10258500892598066
0.535,-2.9904962089914884e-07,0.0006074721053079459,-0.007347517485499936,-45.43815675423528,51.02773308325906,5.066331992972466,-1656323.184719564,5094622.485321992,3594853.2644937597,-211.49609312697154,-4939.02955353275,6872.034456576349,0.9947261058216538,-1.7367162948099267e-05,0.0001604867835339611,0.10256679940049795
0.54,-2.7448989966666923e-05,0.0006021375778504233,-0.007307477979161018,-45.43320947726955,51.01433440747478,5.061138196381489,-1656324.2414758482,5094597.790165885,3594887.6251231516,-211.20642058953226,-4939.032889138905,6872.2173001668925,0.994727989437329,-1.752662074883859e-05,0.0001619970587156464,0.10254852743818232
0.545,4.196389794195415e-06,0.0005922218677651636,-0.007311132275073402,-45.43484903642291,51.000122564719824,5.062306208414654,-1656325.2967838834,5094573.094993083,3594921.9866666216,-210.91679349006984,-4939.036231896922,6872.400087798264,0.9947298624529077,-1.7752211722045575e-05,0.0001634871091215555,0.10253035502349224
0.55,-9.261937549160809e-06,0.0006134732608368011,-0.007326099759348653,-45.430509884694914,50.991272991289655,5.053928564793066,-1656326.350643847,5094548.39980365,3594956.349123912,-210.62719191843723,-4939.039541314554,6872.582828328201,0.9947317360762623,-1.7896566019030937e-05,0.00016496061220806258,0.10251217347425014
0.555,1.6132764933714156e-05,0.0005855076308643748,-0.007337573813539857,-45.433545011963446,50.97323199897731,5.0564047928940985,-1656327.4030558784,5094523.704597597,3594990.7124947873,-210.33762067999652,-4939.04287955698,6872.765521890198,0.9947336131908633,-1.807984136213544e-05,0.00016648351405114473,0.10249395467347804
0.56,1.167033689933256e-05,0.0005980308980408579,-0.007318398260529649,-45.42685311276664,50.95899241161805,5.0567610088685475,-1656328.4540201235,5094499.009374979,3595025.0767789804,-210.04807736565147,-4939.046167657812,6872.948155329268,0.9947354929218633,-1.8192803294310188e-05,0.00016794337644764174,0.10247570729466625
0.5650000000000001,-8.081018477977264e-06,0.0006106520736251223,-0.00731053520922212,-45.41736480455779,50.946407372971215,5.057506710079519,-1656329.5035368067,5094474.314135954,3595059.441976235,-209.7585959221868,-4939.049442677925,6873.130746364684,0.9947373673987978,-1.8320062834851292e-05,0.0001694332397792462,0.10245750756904892
0.5700000000000001,1.677107314866582e-05,0.000609732016512078,-0.007314734114698534,-45.419325569830384,50.930760738056215,5.064154929358482,-1656330.5516062626,5094449.618880565,3595093.8080863636,-209.46918635663374,-4939.052712588835,6873.313305140566,0.9947392395205144,-1.8499670402181194e-05,0.0001709494311147619,0.10243932737090318
0.5750000000000001,-7.683290770415962e-06,0.0005880930252430745,-0.007331580006387086,-45.40705041380565,50.914389794889054,5.055067635662228,-1656331.5982287547,5094424.923608975,3595128.1751091913,-209.17981050519373,-4939.05592357917,6873.495826059607,0.9947411123843319,-1.861724075589343e-05,0.00017246969873514135,0.10242113668566329
0.58,-1.8744558005830858e-05,0.0006181432920118382,-0.007328739572263216,-45.417933807959564,50.90479170241108,5.066101629413405,-1656332.6434045641,5094400.228321253,3595162.5430444423,-208.89051327191447,-4939.059165258315,6873.678274210981,0.9947429892341314,-1.8790092044547512e-05,0.00017392989091828104,0.10240290408416282
0.585,-6.285615600504567e-06,0.0005984289984534299,-0.0072916326800430194,-45.40816766415689,50.88744981187368,5.05470709555498,-1656333.6871338584,5094375.5330175245,3595196.911891912,-208.60120443350053,-4939.062326264783,6873.860713795332,0.9947448650068539,-1.8998142973304677e-05,0.00017546198214180426,0.10238467851519321
0.59,6.997414303573094e-06,0.000586838227948895,-0.007315990824398341,-45.41220106292807,50.881084008141144,5.055494555704731,-1656334.729416774,5094350.837697909,3595231.281651367,-208.3119617706892,-4939.065519713015,6874.043068097361,0.9947467309563309,-1.9170147842081714e-05,0.00017694823735004726,0.10236654518698814
0.595,-5.923797050681118e-06,0.0006136011573391463,-0.007298023275012256,-45.40077592315218,50.863530425342596,5.0585033895818485,-1656335.7702534762,5094326.142362374,3595265.652322547,-208.02271914707995,-4939.068694301529,6874.225404037828,0.9947486028113759,-1.93061640854858e-05,0.00017840906597356367,0.10234835124364638
0.6,1.134036183840754e-05,0.0005784077842175407,-0.007301510450391624,-45.39444653077509,50.84896825859736,5.049412215736912,-1656336.8096441964,5094301.44701102,3595300.023905296,-207.73356896706747,-4939.071847465019,6874.40769548556,0.9947504697222962,-1.9481153555063367e-05,0.00017993314520920053,0.10233020195337818
0.605,-8.744513305487289e-06,0.0006081888865795756,-0.007311453123465223,-45.392988132784424,50.82738167781119,5.047603385513724,-1656337.8475892874,5094276.751643843,3595334.3963993257,-207.44446744885133,-4939.07502323718,6874.589916435096,0.9947523372084929,-1.9604207398905474e-05,0.00018137411926573576,0.102312043950577
0.61,2.9409236017169825e-06,0.0006004183800604546,-0.007315577570075164,-45.39046383961818,50.823605947917386,5.044315969627704,-1656338.8840889933,5094252.056260868,3595368.7698042532,-207.155414845574,-4939.07816683543,6874.77205462528,0.9947542068892455,-1.97848318494021e-05,0.00018288401751543143,0.10229386119481812
0.615,-1.1303813015993047e-05,0.0005923477388767383,-0.007292704592528014,-45.38897293597476,50.79901094681457,5.055242505756687,-1656339.9191434847,5094227.360862133,3595403.144119838,-206.866381737353,-4939.081327051135,6874.954179120357,0.9947560772940788,-1.9934410647407923e-05,0.0001843775795105948,0.10227566814264427
0.62,-6.954018638256072e-07,0.0006208215576911873,-0.007297974073993961,-45.378156374896555,50.78924816490201,5.049278938737471,-1656340.9527529876,5094202.66544782,3595437.5193458963,-206.57741948567212,-4939.084398075466,6875.1362443072185,0.9947579415196449,-2.0117340415733397e-05,0.00018584742956047573,0.10225753194569191
0.625,-1.0465822816876646e-05,0.0005821849019882458,-0.007279814061215126,-45.37888037898177,50.77458457976223,5.052583900153795,-1656341.9849178395,5094177.970018076,3595471.8954821844,-206.28852127369362,-4939.087499595596,6875.3182709653265,0.9947598067464427,-2.028116977860757e-05,0.00018739080265141493,0.10223938260348228
0.63,1.3523355671526845e-05,0.0006106801275622483,-0.007309974855622398,-45.367443419426735,50.763807196750065,5.034171299641243,-1656343.0156382832,5094153.274572927,3595506.2725285008,-205.99965619559032,-4939.090560109692,6875.500255430597,0.9947616670166117,-2.045941321281644e-05,0.00018883559381555702,0.10222127839575577
0.635,4.964237192405046e-06,0.0006002203362640526,-0.0073181212933624215,-45.3789729165432,50.740581562901205,5.042550127718419,-1656344.0449145332,5094128.579112278,3595540.6504845466,-205.71084379060517,-4939.09369912852,6875.682162932896,0.9947635346491731,-2.0585294136681073e-05,0.0001903573787802728,0.1022030991340153
0.64,1.1904126588825033e-05,0.0005731024001687858,-0.007307352070790756,-45.364342115565066,50.734667779210206,5.033155659768278,-1656345.072746738,5094103.883636192,3595575.02934995,-205.42203814545397,-4939.096735336329,6875.863998596542,0.994765404032875,-2.072979212020865e-05,0.0001918509637931484,0.10218489958303298
0.645,3.718844477937719e-06,0.0005755877527717202,-0.007313545954036775,-45.37257235790909,50.72409175278618,5.037013704103994,-1656346.0991350892,5094079.188144773,3595609.409124459,-205.133302265469,-4939.099832204321,6876.045805000917,0.9947672703441953,-2.0850098417864595e-05,0.0001932788822177261,0.10216672677787975
0.65,1.7608290742724778e-05,0.0006154044405584724,-0.007293825890078418,-45.36828572330522,50.69321430404428,5.033474079887692,-1656347.1240797427,5094054.492637994,3595643.7898079245,-204.8445591686415,-4939.102879847979,6876.227581013477,0.9947691379015896,-2.0991398629092808e-05,0.00019471089046434417,0.10214853853853514
0.655,5.235180753026378e-06,0.0005977624925389501,-0.007301072262493005,-45.35326064828673,50.690525475888116,5.039630522461815,-1656348.1475808711,5094029.7971160775,3595678.171399962,-204.5558922335068,-4939.105886674697,6876.409234087315,0.994771000070528,-2.1108315293932613e-05,0.00019624546767754242,0.10213039929833449
0.66,-1.8693942321873223e-06,0.0005913591158338453,-0.0072992994402719,-45.352590103066476,50.66906683865125,5.031100509106775,-1656349.1696388791,5094005.101579108,3595712.553900334,-204.2673109193333,-4939.108901001626,6876.5909147864795,0.9947728637642773,-2.125150208637437e-05,0.000197733011020232,0.10211224200970534
0.665,-6.786629465341537e-06,0.0006077436021551263,-0.007303345388416726,-45.34619012379025,50.65912139129824,5.0382698934841255,-1656350.1902540715,5093980.406027085,3595746.937308856,-203.97876608519385,-4939.111908275933,6876.772493773109,0.9947747266747111,-2.141072193346069e-05,0.00019920281596715508,0.10209408909957993
0.67,4.936620903113443e-07,0.0005915775180795974,-0.007281404947567578,-45.339716722977975,50.64292220018286,5.034824468127365,-1656351.2094266934,5093955.710460102,3595781.3216252564,-203.69028266386306,-4939.114884761487,6876.954066482268,0.994776590275713,-2.1586354539627274e-05,0.00020071211276131534,0.1020759260947634
0.675,4.9239173731262365e-06,0.0005862445516899127,-0.007291718490288215,-45.33312100185569,50.62491921675785,5.025965280924878,-1656352.2271570468,5093931.014878245,3595815.7068493674,-203.40185870417986,-4939.117858119763,6877.135577920183,0.9947784479533743,-2.173974505025455e-05,0.00020218306442362267,0.10205781761760228
0.68,-1.0581107330125288e-05,0.0005974986576018703,-0.007272946468177962,-45.34173262988205,50.60641733727611,5.016217404795636,-1656353.2434454213,5093906.319281485,3595850.0929808263,-203.11349105344456,-4939.12084578925,6877.317005695489,0.994780307933155,-2.1880762283221643e-05,0.00020364188301325834,0.10203968345517883
0.685,-9.724319817835703e-07,0.0005820058694919368,-0.007281465216005593,-45.32449848516669,50.59946162046321,5.018859947496772,-1656354.2582919272,5093881.623669824,3595884.4800191717,-202.8251113435089,-4939.12381889552,6877.498332525557,0.9947821627857286,-2.2063201098633255e-05,0.00020512473564964385,0.1020215959510835
0.6900000000000001,-2.3456829613907665e-06,0.0005893581962947708,-0.007292985771739501,-45.31827334002321,50.58101664358359,5.025653354781299,-1656355.2716967815,5093856.928043256,3595918.8679641574,-202.53683033309056,-4939.12680812526,6877.679661616983,0.9947840194880957,-2.2217796430623055e-05,0.0002065715086056423,0.10200348722317967
0.6950000000000001,-8.568925962819377e-06,0.0005999938637335926,-0.007272974630127427,-45.32248358516215,50.56082122197959,5.017360226338094,-1656356.2836604193,5093832.232401866,3595953.256815683,-202.24862483328914,-4939.129748198357,6877.860948693813,0.9947858787921321,-2.2377687832432246e-05,0.00020803621560479328,0.10198534981034148
0.7000000000000001,9.780326990607089e-07,0.0006080709826153943,-0.0072808368688586705,-45.32739140062,50.549583824663685,5.018057327749505,-1656357.2941830612,5093807.536745812,3595987.646573394,-201.96043191110618,-4939.132673136295,6878.042135713095,0.994787732656198,-2.25557575105351e-05,0.00020952578748443054,0.10196726213311276
0.705,-1.3049701835557386e-05,0.0005897388363375637,-0.007272696559099441,-45.30807055327731,50.53302254573419,5.012579505392783,-1656358.3032647504,5093782.841075213,3596022.0372369424,-201.67224373371218,-4939.135566563354,6878.223283569485,0.9947895881892965,-2.2712147310353794e-05,0.00021103788009093147,0.10194915486330167
0.71,6.867304784716553e-06,0.0005948506227085425,-0.007278163523014681,-45.31369160983019,50.52429276316123,5.029601787862682,-1656359.3109057862,5093758.14539007,3596056.4288060856,-201.3841705875414,-4939.138490379591,6878.404373749253,0.9947914413250735,-2.2898747051408473e-05,0.000212500806229513,0.10193106781270254
0.715,9.17851291611594e-06,0.0005858577416879653,-0.007273479528561895,-45.30349066105704,50.50147442019551,5.012329313463223,-1656360.3171065012,5093733.4496905375,3596090.8212807197,-201.096115380004,-4939.141322628213,6878.5854799840845,0.9947932955211255,-2.303711914445411e-05,0.00021398152029207456,0.10191296712106278
0.72,-7.358457986615716e-06,0.0005969293527181138,-0.0072891767614666255,-45.30319762234592,50.48937574947576,5.009178473022285,-1656361.3218671158,5093708.753976734,3596125.214660576,-200.80813052505076,-4939.144198684231,6878.7664624897725,0.9947951481974173,-2.3167449560266367e-05,0.00021544045826396536,0.10189487804377925
0.725,1.5412418558389944e-05,0.0005789119220035748,-0.007278062680001401,-45.289485944037644,50.46578450220686,5.017251668205885,-1656362.325187868,5093684.05824857,3596159.608945222,-200.52017032727636,-4939.147067090196,6878.947395938668,0.9947970045336456,-2.3341736020086494e-05,0.0002169227176355881,0.10187674990194671
0.73,-1.9127824848725423e-05,0.0005902074563977278,-0.007276515785355556,-45.289215320608776,50.44766222566259,5.003043826702876,-1656363.327069119,5093659.36250619,3596194.004134403,-200.23233012009368,-4939.149884861539,6879.128276338971,0.9947988577183124,-2.3454796552228904e-05,0.00021836596792535037,0.10185864935545465
0.735,8.26518720027705e-06,0.0005952521700026621,-0.0072870397942055585,-45.28251957776222,50.43946720770906,5.003624874099554,-1656364.3275112223,5093634.666749666,3596228.4002277246,-199.94451118068264,-4939.152724716326,6879.309052293509,0.9948007101694775,-2.3656634088483074e-05,0.00021982851463850004,0.10184055264034654
0.74,-1.0834989171036537e-05,0.0005992584968407322,-0.007272875507473913,-45.26868778420059,50.41858879751825,5.010918842619503,-1656365.3265143586,5093609.970978944,3596262.797224882,-199.656743293297,-4939.155564324836,6879.4898108256675,0.9948025649670527,-2.379163532200299e-05,0.0002213105811663123,0.10182242970268308
0.745,1.9595949777538756e-06,0.0005835243826511937,-0.007274334124359055,-45.2765439105853,50.40213668892084,5.013033135686668,-1656366.3240789417,5093585.275194126,3596297.1951257223,-199.3690900154313,-4939.158362801051,6879.670525234906,0.9948044158239365,-2.39751508067628e-05,0.00022279775015742592,0.10180434196806654
0.75,-8.981598205384405e-06,0.0006118999786662539,-0.007254222348264784,-45.270808113697974,50.38409222571511,4.999574557197115,-1656367.3202052657,5093560.579395453,3596331.5939299874,-199.0814394868143,-4939.161106163288,6879.851180791595,0.9948062667304693,-2.412284232110785e-05,0.00022424904443182098,0.1017862505657852
0.755,-1.0945269262251487e-05,0.0005996616875674309,-0.0072890224961487645,-45.26424729316396,50.370461200176806,4.998590220556924,-1656368.3148934531,5093535.883582988,3596365.9936372866,-198.79383551060081,-4939.163880050905,6880.031738877746,0.9948081121723573,-2.430495408500243e-05,0.00022576812623890225,0.10176820915243098
0.76,-6.351049373056031e-06,0.0005883082439787754,-0.007278090447632676,-45.268295002771914,50.34298131747941,4.99585940981819,-1656369.3081437664,5093511.18775667,3596400.3942472665,-198.50628979201298,-4939.166647067493,6880.212252968772,0.9948099661438586,-2.4488855500037636e-05,0.00022725626937993747,0.10175008115838939
0.765,2.2584482614117045e-06,0.000583434068703109,-0.007247235555763702,-45.25291945639304,50.33732881341528,4.9932153980620795,-1656370.2999564349,5093486.491916651,3596434.795759531,-198.2187776159451,-4939.169360628755,6880.392653101778,0.9948118170092121,-2.4658436722112805e-05,0.00022871734547294262,0.1017319803167486
0.77,1.9622807399615457e-05,0.0005891514054528753,-0.007266033424993506,-45.24225071223156,50.31952055910796,4.9976596736510865,-1656371.2903317455,5093461.796062973,3596469.1981737753,-197.93134663929578,-4939.172110275377,6880.573044378981,0.9948136597004705,-2.4805348569664656e-05,0.00023016849082734532,0.10171395617375727
0.775,1.2767324677201924e-05,0.0005820142398158333,-0.007245344068466006,-45.24667880909606,50.29662730049434,4.999411797162983,-1656372.279270129,5093437.100195621,3596503.6014898694,-197.64400682577053,-4939.174830512547,6880.753393296078,0.9948155068399808,-2.4910539303888206e-05,0.00023163826964567983,0.10169588523578235
0.78,1.4587497372653011e-05,0.0005900015841535665,-0.007252276114535601,-45.240513882531445,50.28297186682452,5.004219267411288,-1656373.266771887,5093412.404314822,3596538.0057075,-197.35669627814627,-4939.177489297138,6880.933659070902,0.994817348393681,-2.5030953349082037e-05,0.00023308855633217518,0.10167786572377424
0.785,2.3805622753356808e-07,0.0005922332819947314,-0.007251627786257321,-45.22849369885808,50.258304738255994,4.989853741518577,-1656374.2528372516,5093387.708420805,3596572.410826389,-197.0694496587821,-4939.18011749192,6881.113896584813,0.9948191913760877,-2.5148874917349423e-05,0.00023455917005780385,0.10165982893629631
0.79,-1.1480852590955987e-05,0.0006043382981682464,-0.007258527051020608,-45.222869764983244,50.239116982788474,4.9883598168127,-1656375.2374665972,5093363.012513568,3596606.816846162,-196.78228852358265,-4939.182777444864,6881.294012433716,0.9948210338623482,-2.5303051030750136e-05,0.0002360316871818585,0.10164179373587913
0.795,-5.370448751772935e-06,0.00057961122816844,-0.0072450946121521,-45.221244700724775,50.22409394692113,4.9851367979601395,-1656376.2206602956,5093338.31659308,3596641.223766342,-196.49519080444776,-4939.185417858746,6881.474059488257,0.9948228777643602,-2.548945268824198e-05,0.0002375313317757827,0.10162374134911188
0.8,8.957723234845033e-06,0.0006028412860455697,-0.007219859514481454,-45.201187854957794,50.20724756710925,4.982980322617735,-1656377.2024185946,5093313.6206594175,3596675.6315866066,-196.2081288328139,-4939.188046890179,6881.654046479411,0.9948247179396497,-2.565436729349858e-05,0.00023897103191498973,0.10160572233391105
0.805,-6.6493818445481904e-06,0.0005938581310548222,-0.007259583739534076,-45.21407819660767,50.19437619024873,4.973885834758085,-1656378.1827418914,5093288.924712566,3596710.0403066836,-195.92118985896835,-4939.190693988575,6881.8339843791855,0.9948265513644909,-2.578953253205723e-05,0.0002404721477441206,0.1015877660364676
0.81,-1.678399103003021e-05,0.0005980334433284593,-0.0072105673842839425,-45.195615143608656,50.17736855184591,4.985605132836141,-1656379.1616303914,5093264.228752511,3596744.4499262506,-195.63421012522093,-4939.193327916779,6882.013842351083,0.9948283945543456,-2.5961256103222198e-05,0.00024194695550266702,0.10156971091869518
0.8150000000000001,-4.1047011365881565e-06,0.0005832893996040456,-0.007226162547276753,-45.1889575794398,50.159900873074506,4.975572080471027,-1656380.1390843275,5093239.532779387,3596778.8604450766,-195.3473643503586,-4939.195921578585,6882.19368806107,0.9948302249668888,-2.6159215723049726e-05,0.0002434295772375374,0.10155177768048097
0.8200000000000001,-2.4126481601941238e-05,0.0005871502554338131,-0.007245209286512787,-45.1743197762453,50.13442370505456,4.983286497997891,-1656381.1151041696,5093214.836793245,3596813.271862919,-195.06057250282794,-4939.198535373505,6882.373448876523,0.9948320590223831,-2.6321907263444565e-05,0.00024487874733294354,0.10153380561587348
0.8250000000000001,-1.6649858607411294e-05,0.0005985532252653598,-0.007227988550201414,-45.188849081393585,50.123869174709625,4.965073545754267,-1656382.0896903698,5093190.140794163,3596847.6841794127,-194.77390760005179,-4939.201097384363,6882.553148593862,0.9948338975812556,-2.653538624669986e-05,0.00024633243613330085,0.10151578615906066
0.8300000000000001,1.420157310822626e-05,0.0005889956356589946,-0.007203023960483676,-45.17589997097384,50.10123125710851,4.972505512377454,-1656383.0628430855,5093165.444782209,3596882.0973941614,-194.48717868427013,-4939.20368417685,6882.732750917901,0.9948357314353602,-2.67331535747781e-05,0.00024781638363534375,0.10149780949286799
0.835,-8.320115344927426e-06,0.0005795535937117856,-0.007248266009309179,-45.16871890751003,50.083956686010204,4.974261504361006,-1656384.0345624415,5093140.74875744,3596916.511506792,-194.20056364399184,-4939.206223335017,6882.9123014663,0.9948375586369087,-2.6851749974904446e-05,0.000249284390527388,0.10147989486411398
0.84,-2.6124746262580533e-06,0.0005865193591436613,-0.007249474985081735,-45.15626112871687,50.05949937602398,4.972246463898374,-1656385.0048488996,5093116.052720037,3596950.9265170493,-193.91401963847963,-4939.2087376323725,6883.0918012999455,0.9948393969939712,-2.7023992671884663e-05,0.0002507231973091457,0.10146186769547505
0.845,-2.991721949832823e-05,0.0005864895073965161,-0.007247971875265868,-45.16503384107542,50.05007747100212,4.968574761808459,-1656385.973702895,5093091.356670102,3596985.3424245906,-193.62757847007782,-4939.211236368126,6883.271215148797,0.994841235324883,-2.7183807552028134e-05,0.0002521807762407733,0.10144383748240904
0.85,1.2775586940143566e-05,0.000565462320781386,-0.007238301586931508,-45.145828339314576,50.03603825338429,4.9656813963682955,-1656386.9411246304,5093066.660607719,3597019.7592290826,-193.34111569527917,-4939.213716959838,6883.450581692824,0.9948430729439076,-2.7411523620148128e-05,0.0002536313562015676,0.10142581099141591
0.855,-5.698663644591578e-06,0.0006106962510995725,-0.007216030600213263,-45.14079407704729,50.0142756056651,4.9664100451671445,-1656387.9071143346,5093041.964532869,3597054.176930306,-193.05476604661342,-4939.216223190312,6883.6299077110825,0.9948449077988789,-2.7527720191996418e-05,0.00025504046524528896,0.10140780849237395
0.86,1.918877805862809e-05,0.0005879366129540563,-0.007221723401297092,-45.13398221436202,49.99422221408609,4.955867750905439,-1656388.8716724613,5093017.268445576,3597088.595527976,-192.76848459413554,-4939.218693957709,6883.809160137428,0.994846736650686,-2.7701317774443526e-05,0.00025655739401779694,0.10138986135911837
0.865,1.1143940268997497e-05,0.0005927335327443032,-0.007252558752432066,-45.12994587893618,49.979937868339434,4.962285800831561,-1656389.8347993272,5092992.572345888,3597123.0150216655,-192.48226174600916,-4939.221181204163,6883.988315867388,0.9948485666355372,-2.7807252032343244e-05,0.00025802402476824326,0.10137190001956427
0.87,2.3617863422176112e-07,0.0005810251095040455,-0.007213530799007722,-45.12576427688948,49.96011315354686,4.958980471429069,-1656390.7964952225,5092967.876233871,3597157.435411064,-192.1960964081834,-4939.223625612783,6884.1674434376055,0.9948504041034952,-2.7934430342273685e-05,0.00025950054501075893,0.10135386196019854
0.875,9.864658103764298e-07,0.0005896316559803335,-0.007218664809900419,-45.118625803199485,49.944594650793086,4.952768224070221,-1656391.7567604305,5092943.180109674,3597191.856695906,-191.90998677310736,-4939.226053133607,6884.346493315403,0.9948522313617613,-2.8085745566462036e-05,0.000260945183710028,0.10133592094280579
0.88,-2.8909517577129215e-06,0.0005769958075962195,-0.007196307990877232,-45.108769991528554,49.91546949156316,4.954006015700911,-1656392.7155952337,5092918.483973313,3597226.2788758324,-191.6239345501919,-4939.228491141182,6884.525477261446,0.9948540595892092,-2.8237378449293812e-05,0.00026241141764585127,0.10131796712216694
0.885,-1.0797301036758565e-05,0.0005703880181754411,-0.0072006914312273355,-45.101948494478926,49.90218118277743,4.953562032778246,-1656393.6730000353,5092893.787824874,3597260.701950433,-191.33798604339546,-4939.2308846409205,6884.7043631402275,0.9948558818366843,-2.8395439721531412e-05,0.00026384524388134754,0.10130006887628328
0.89,1.4604913720391147e-05,0.0005856295604667141,-0.007217745678733701,-45.090659918885294,49.87977702364722,4.948855225832748,-1656394.6289752426,5092869.091664487,3597295.125919361,-191.05209688053756,-4939.233270338291,6884.883207976745,0.9948577048738176,-2.8571494647290055e-05,0.000265260632939933,0.10128215970083938
0.895,1.3966820522360177e-06,0.0005899838451245069,-0.007226793470277188,-45.08248409490762,49.85469617157403,4.946436170111429,-1656395.58352123,5092844.395492177,3597329.5507822973,-190.76629806136228,-4939.235653308339,6885.0619665564245,0.9948595318956466,-2.8688241141386465e-05,0.0002667203605860191,0.1012642080579762
0.9,-7.771204304019141e-06,0.0005960537466724954,-0.007187795821873981,-45.07550259337747,49.840603010400855,4.940977484038017,-1656396.5366384336,5092819.6993080145,3597363.976538793,-190.48058341915416,-4939.238011984386,6885.240631853021,0.9948613608776876,-2.8838946830044633e-05,0.0002681875734468542,0.10124623388717224
0.905,1.5085834925575805e-05,0.0006167474210798694,-0.007198821641436594,-45.06064609911214,49.82087590242753,4.947088500099108,-1656397.488327202,5092795.003112031,3597398.4031884703,-190.19492387080078,-4939.240381109545,6885.419238983912,0.9948631796589077,-2.9013964688982297e-05,0.00026966756527302903,0.10122835668211824
0.91,1.0583627626365854e-05,0.00058192711678572,-0.007204713975831674,-45.051947575679684,49.80945308702323,4.946745129926398,-1656398.4385879608,5092770.306904283,3597432.830731078,-189.9093797008856,-4939.242718278359,6885.597803942257,0.9948650008941236,-2.9137377871557835e-05,0.0002712048090997122,0.10121045200422908
0.915,1.550320835108421e-05,0.0006020556995070137,-0.007210886478874549,-45.0558571062765,49.78617540327943,4.940308250000576,-1656399.3874211602,5092745.610684849,3597467.259166431,-189.6239000588725,-4939.245055309515,6885.776337298793,0.9948668233188036,-2.9263182314026117e-05,0.0002726543094774133,0.10119253264369991
0.92,2.726643467142757e-05,0.0005980948079263014,-0.007183614952449502,-45.05014292943352,49.76457937529223,4.944172195467422,-1656400.3348270152,5092720.914453803,3597501.6884941827,-189.3384419694285,-4939.247363206298,6885.95476335335,0.9948686469664346,-2.9381847290888887e-05,0.0002741551170243691,0.10117459789321931
0.925,-2.035267092502608e-06,0.0005939640554271137,-0.007193251706843173,-45.03576982989161,49.741759361040124,4.935168387277398,-1656401.280805767,5092696.218211332,3597536.1187139056,-189.05305877188198,-4939.249624947565,6886.133125777956,0.9948704633953456,-2.9470234549917226e-05,0.00027564905041728427,0.10115673093095012
0.93,1.2593296006216862e-05,0.0005842120440061868,-0.0071799938207263965,-45.02860436590539,49.725616540965774,4.928431327952038,-1656402.2253578515,5092671.521957505,3597570.5498251966,-188.76777495751094,-4939.2519061572275,6886.311390800402,0.9948722819384862,-2.9630462300751794e-05,0.00027712529894053436,0.10113883998797751
0.935,-5.361021021965973e-06,0.0005680409998930901,-0.007207228390803602,-45.019163136414946,49.70132124083069,4.931578213826219,-1656403.1684836615,5092646.825692243,3597604.9818276386,-188.48254906889812,-4939.254198474642,6886.489585854817,0.994874096813948,-2.9751831209027738e-05,0.0002785809921309398,0.10112098197748416
0.9400000000000001,-1.6815380710529974e-06,0.000586709370761719,-0.007188085444618626,-45.015567494683,49.67953392030406,4.936534653308817,-1656404.1101835808,5092622.129415625,3597639.4147208715,-188.19741868264884,-4939.256448887814,6886.6677073572655,0.9948759182604695,-2.9913786707826494e-05,0.00027999192392729215,0.10110305621036217
0.9450000000000001,-1.0500103791180489e-05,0.0005755408506274189,-0.007177066678705527,-45.00172227153131,49.66018240775886,4.927661368292828,-1656405.050458016,5092597.433127892,3597673.848504554,-187.91235539063746,-4939.258644086098,6886.845765690955,0.9948777345314687,-3.0071295798017408e-05,0.0002814502188629585,0.10108517801846198
0.9500000000000001,2.7136538186972034e-05,0.0005893734166398542,-0.007189152611643255,-44.996169237677634,49.64798050545319,4.923992012552212,-1656405.989307362,5092572.736829119,3597708.2831783197,-187.62738299572916,-4939.260865137043,6887.0237405918315,0.9948795477021958,-3.0247908182649554e-05,0.00028287850768990013,0.1010673272066119
0.9550000000000001,-8.433118703427911e-06,0.000591207922567938,-0.00719169998736408,-44.975805088291516,49.628401060141414,4.92420420442263,-1656406.9267319648,5092548.040519229,3597742.718741843,-187.34245808970874,-4939.263090932139,6887.201668713716,0.9948813635967759,-3.0334414342352615e-05,0.00028435070944065764,0.10104944627417357
0.96,1.1338626837112478e-05,0.0005848772585429541,-0.0071866550342239216,-44.974523858918516,49.60414867910256,4.922772204977893,-1656407.8627322733,5092523.344198203,3597777.155194873,-187.0576653859808,-4939.265319576951,6887.3795433173,0.9948831798072277,-3.050985471445918e-05,0.00028581848795978854,0.10103155899816689
0.965,2.829654194010286e-06,0.0005885994117977076,-0.007195354949790622,-44.96545277805737,49.583067221769575,4.922764235434506,-1656408.797308751,5092498.6478661345,3597811.5925370436,-186.77292561892025,-4939.267507735673,6887.557324933991,0.9948849944259378,-3.063451603699604e-05,0.00028727551501857973,0.10101368422350848
0.97,5.479090475200522e-06,0.00055296975885243,-0.007187015890502584,-44.96341439279481,49.563857739671064,4.922555321201006,-1656409.7304617395,5092473.951523183,3597846.0307679484,-186.48826982399288,-4939.269673018547,6887.735036899327,0.9948868109146702,-3.07812871917975e-05,0.00028873965029697083,0.10099578778327334
0.975,9.508281464804376e-06,0.0006068499247594602,-0.007164287040465216,-44.953204368018625,49.53783647458876,4.918580659409867,-1656410.6621915712,5092449.255169485,3597880.4698872417,-186.2036628353111,-4939.271806104126,6887.912680408663,0.9948886250002186,-3.091246648184587e-05,0.00029011583639845237,0.10097791205206934
0.98,-1.2349360018424177e-05,0.0005993835106225878,-0.007204185575937083,-44.93891999310088,49.52136791099559,4.912366700582883,-1656411.5924986,5092424.558805162,3597914.9098945027,-185.91914870966073,-4939.273922972753,6888.090224030636,0.9948904329869557,-3.104720955281028e-05,0.00029162705322113294,0.10096009281275618
0.985,-1.2105091235705802e-05,0.0005856309159093611,-0.007176286024514598,-44.937574222727406,49.500426011152896,4.910528627251279,-1656412.521383286,5092399.862430198,3597949.350789322,-185.63472563145376,-4939.276062643721,6888.267703686666,0.9948922507246398,-3.1234462073751284e-05,0.0002931141793184653,0.10094217432048237
0.99,1.4863731827401772e-06,0.0005755795220498339,-0.007167170880212461,-44.920289855882345,49.47870825624027,4.910215490587107,-1656413.4488459732,5092375.166044613,3597983.792571338,-185.35034927233247,-4939.2781711474745,6888.445102719012,0.9948940611081605,-3.141761604531863e-05,0.0002945671632667994,0.10092432518888383
0.995,-5.90705531518946e-06,0.0005717297877381002,-0.007173961021340572,-44.92276421487607,49.45103788065025,4.915456170749427,-1656414.3748870825,5092350.469648502,3598018.2352401833,-185.06609442690728,-4939.280273346369,6888.62243544104,0.9948958688783851,-3.156442205072884e-05,0.00029599857692905787,0.10090649868691721
1.0,-4.388712718513268e-06,0.0005785485394075465,-0.007160949796379343,-44.91391295844392,49.432178595140364,4.90609656940269,-1656415.2995070443,5092325.773242086,3598052.678795464,-184.7818903336388,-4939.2822931690735,6888.799676784198,0.994897678042036,-3.172865114124065e-05,0.0002974185496354071,0.1008886552693826
1.0050000000000001,1.0750212953679157e-06,0.0005862662447614688,-0.007177018556995793,-44.90168813040309,49.4239273927603,4.903882813565751,-1656416.222706153,5092301.076825524,3598087.123236734,-184.497753161376,-4939.284331605718,6888.976831104356,0.9948994835975281,-3.189081389498441e-05,0.0002988558661370785,0.10087084417967017
1.01,-1.2329852903700689e-05,0.0005657144712458155,-0.007185968508070733,-44.895860407535075,49.38815279200231,4.905660066155657,-1656417.1444847563,5092276.380398716,3598121.568563722,-184.21368809638508,-4939.286391728752,6889.153964250065,0.9949012928781772,-3.2041345207281794e-05,0.00030031375494233827,0.10085299308564108
1.0150000000000001,2.0810647251354963e-05,0.0005743427878600275,-0.007145632491351277,-44.88733010755807,49.37118947507924,4.900498718764208,-1656418.0648432793,5092251.683961783,3598156.0147760585,-183.9297211516546,-4939.288381533317,6889.3309703246605,0.9949031041069986,-3.222004277566602e-05,0.0003017171456639379,0.10083511970980986
1.02,1.9826856968901464e-06,0.0005648874409993172,-0.007159584138813725,-44.87914004649043,49.348176907248416,4.898478820608871,-1656418.9837821363,5092226.987514886,3598190.4618732557,-183.6458216523181,-4939.290377110829,6889.507908542687,0.9949049048424449,-3.2318456035632784e-05,0.0003031503547003712,0.10081734660179038
1.025,-8.732827920501794e-06,0.00057982712276904,-0.007158944557434561,-44.864581631959695,49.33001656346186,4.89397013484387,-1656419.9013016978,5092202.291058064,3598224.909854934,-183.36200297898313,-4939.292351413323,6889.684762817585,0.9949067087798172,-3.246132677961082e-05,0.00030455529912178287,0.10079953877495702
1.03,1.2059185478537734e-05,0.0005919023238313462,-0.007130942411521708,-44.853796311218645,49.300163037454254,4.894353418832785,-1656420.8174024096,5092177.59459134,3598259.358720719,-183.07828175425712,-4939.294338474573,6889.861551172117,0.9949085122230211,-3.263461414969378e-05,0.0003059947021738838,0.10078173251338247
1.035,1.1656522906505098e-05,0.0005753576623955288,-0.007157456810185139,-44.85455026599954,49.285187662997885,4.8901124407583465,-1656421.7320847851,5092152.898114783,3598293.8084701886,-182.79466838327403,-4939.296284436759,6890.0382366678205,0.9949103082838462,-3.27592071094423e-05,0.00030746938035093385,0.10076399585147823
1.04,-5.700596106572511e-06,0.0005747478539748407,-0.007127543157353166,-44.8412911237416,49.25385010168923,4.890662098999348,-1656422.645349152,5092128.201628527,3598328.2591029233,-182.51107838528253,-4939.298217961299,6890.214857206201,0.9949121107171033,-3.288065420695025e-05,0.00030890280368752387,0.10074619321025885
1.045,-2.2152591732939423e-05,0.0005828540738555945,-0.007136039008049222,-44.8313356065021,49.24525108097411,4.885524587177127,-1656423.5571958735,5092103.505132703,3598362.710618495,-182.22761021034236,-4939.300111365402,6890.391371374749,0.9949139052959064,-3.3045096622969736e-05,0.00031033034096031266,0.10072846495380162
1.05,-3.887685165140339e-06,0.0005681665154882018,-0.0071512891905165625,-44.81227518892894,49.22150402822404,4.884096520070212,-1656424.467625401,5092078.808627344,3598397.1630165554,-181.94420078610523,-4939.3020324700865,6890.567852822866,0.9949157016881379,-3.3252507735473714e-05,0.00031177389694846857,0.1007107155456069
1.055,-1.834823459141858e-05,0.0005797350791123264,-0.007134961559722287,-44.808222556180226,49.197150837850586,4.88063149530738,-1656425.3766382104,5092054.112112386,3598431.6162968324,-181.66092296853063,-4939.303950555992,6890.7442579550125,0.9949175016135879,-3.3410802631711684e-05,0.00031318551804219855,0.10069292816045153
1.06,1.3935349343236228e-05,0.0005976756591131634,-0.007133298556366862,-44.79877963104583,49.175425992127884,4.880401783716972,-1656426.2842347876,5092029.415587906,3598466.0704588927,-181.37770793081296,-4939.305841510832,6890.920566185891,0.9949192970992492,-3.3607964548911606e-05,0.0003146222746275892,0.10067518136494741
1.065,-3.5016243725125057e-07,0.0005683183331517967,-0.007138398562661134,-44.789854985286645,49.15403912359795,4.873085764390677,-1656427.1904155056,5092004.719054028,3598500.5255023125,-181.0945792540283,-4939.307709646964,6891.09680168157,0.9949210918363138,-3.372934167354605e-05,0.0003161117802142244,0.10065743864668548
1.07,-1.1270846601646003e-05,0.000589224373197435,-0.007134400871194756,-44.78048572552861,49.12912151138498,4.881194820782215,-1656428.095180766,5091980.022510798,3598534.9814266805,-180.81152492052374,-4939.309582551301,6891.272945592703,0.994922887560007,-3.387886762718102e-05,0.00031752466985496996,0.10063968322468057
1.075,2.8205069823607594e-05,0.0005631980611103753,-0.007128343501771751,-44.77720475025412,49.108518433930534,4.868207202051809,-1656428.998531011,5091955.325958361,3598569.438231612,-180.5285730592657,-4939.311392278399,6891.449027058871,0.9949246819415946,-3.406081343624825e-05,0.0003189868118414104,0.10062193772081628
1.08,1.5432594161222776e-05,0.0005771029252461201,-0.0071256665017966556,-44.77098111715461,49.091003426332314,4.8568239591508435,-1656429.9004665974,5091930.629396832,3598603.8959166785,-180.2456615143029,-4939.313219387326,6891.624999561365,0.9949264745052298,-3.413801844997679e-05,0.00032039414904892055,0.10060420722206109
1.085,4.070825552392896e-06,0.0005429709865422782,-0.007127452905012735,-44.75032403403717,49.062844319014616,4.8731879737221115,-1656430.8009877512,5091905.932826106,3598638.354481384,-179.96279998354126,-4939.315070645493,6891.800882562028,0.9949282660654657,-3.425048771360124e-05,0.0003218328597641934,0.10058648335875221
1.09,-4.858895222407253e-06,0.0005758322589826533,-0.007094144668908495,-44.74363490030311,49.03699987126466,4.864769827160071,-1656431.700095021,5091881.236246325,3598672.813925396,-179.68010796366752,-4939.316841825624,6891.976722371776,0.9949300577836435,-3.438263573623864e-05,0.0003231838160463657,0.1005687550320237
1.095,-6.1129370314749955e-06,0.000566748493606641,-0.0071409966951429295,-44.7230935432444,49.024847088209256,4.857201183104811,-1656432.597789008,5091856.539657702,3598707.274248321,-179.39748680285547,-4939.318607329468,6892.152447491226,0.9949318407837149,-3.454522999839224e-05,0.0003246142666307978,0.1005511095261196
1.1,-2.378130851111075e-05,0.0005768156726977758,-0.007133777109671002,-44.71480672320961,48.99959466048261,4.860128029386415,-1656433.4940701625,5091831.843060125,3598741.735449758,-179.1149750866311,-4939.3204235670855,6892.328127341415,0.9949336352515553,-3.4708698030226354e-05,0.00032602180350874556,0.1005333474535436
1.105,-6.847656087724775e-06,0.0005648356596945988,-0.007112379611378554,-44.71113804220653,48.96482568037397,4.852162750570153,-1656434.3889389876,5091807.146453581,3598776.1975293965,-178.8325549006466,-4939.3221940451795,6892.503727969253,0.9949354275763235,-3.491863752727638e-05,0.0003274499406950821,0.10051560331980142
1.11,-8.338220955443534e-06,0.0005860144081648512,-0.007128960858560706,-44.69870384150215,48.94956592061798,4.850698357110504,-1656435.2823958965,5091782.4498382695,3598810.660486657,-178.55020863943162,-4939.323930373681,6892.679176427493,0.9949372142178837,-3.5083429324289135e-05,0.0003288525365371675,0.1004979123639856
1.115,2.036228762380322e-06,0.0005758199946529366,-0.00712614629354234,-44.688431899338354,48.92288944017175,4.847727749633024,-1656436.1744412903,5091757.75321427,3598845.1243210416,-178.26794887601426,-4939.325669653882,6892.854577356642,0.9949390046904976,-3.525726333823694e-05,0.0003303074351359033,0.1004801801322321
1.12,-8.614162802883163e-06,0.0005666890287568703,-0.0070912821341422945,-44.6751245050864,48.90021902291693,4.846430510253939,-1656437.0650756238,5091733.056581628,3598879.589032181,-177.9857845135412,-4939.327387171097,6893.029878414006,0.9949407941474195,-3.5402729313779505e-05,0.0003317395828945102,0.10046245486149585
1.125,5.1742955828074875e-06,0.0005620073546098027,-0.007097521401664564,-44.65864669965918,48.886155244742454,4.855604248911949,-1656437.9542993952,5091708.35994043,3598914.054619635,-177.7037241077417,-4939.329091737541,6893.2051030509765,0.9949425745383541,-3.557236433800343e-05,0.000333146346796033,0.10044481628790194
1.1300000000000001,-8.052870411873469e-06,0.0005586151103521896,-0.007121123808363732,-44.65583894440263,48.855916882280205,4.8420453589252785,-1656438.8421131552,5091683.66329078,3598948.521083188,-177.42177982108547,-4939.330768325361,6893.380318070545,0.9949443561862134,-3.5706532111953465e-05,0.0003345449274928233,0.1004271621521617
1.135,1.54976214181669e-06,0.0005671558731550081,-0.007101747383796787,-44.65153095675547,48.84211076768315,4.8358828069622595,-1656439.7285173303,5091658.966632756,3598982.98842244,-177.13989021358347,-4939.332441369514,6893.555382913797,0.994946143445289,-3.587276866647527e-05,0.0003359317473238246,0.10040944928816252
1.1400000000000001,9.608429529842063e-06,0.0005863207887906389,-0.007083781457867629,-44.62962442063722,48.80659365977352,4.8457404312054235,-1656440.6135121607,5091634.269966346,3599017.456636863,-176.8580419888005,-4939.334122570836,6893.730386259015,0.9949479255176608,-3.601724761440133e-05,0.00033734222327083294,0.10039178457964387
1.145,-2.1669785461620274e-05,0.0005595721999132063,-0.007089512874186862,-44.6231613916646,48.78485672008295,4.836534148910628,-1656441.4970981998,5091609.573291702,3599051.925726077,-176.57637365707558,-4939.335734927368,6893.9052992523375,0.994949702750615,-3.61464765133198e-05,0.00033880239352143454,0.10037416451873095
1.1500000000000001,-2.155322356147224e-05,0.0005754659358719521,-0.007075916479694314,-44.61896396916058,48.759939286355205,4.840704260204832,-1656442.3792760507,5091584.876608982,3599086.3956896043,-176.29476669616076,-4939.3373535455385,6894.080111782348,0.9949514811272767,-3.63467987140564e-05,0.00034018818058393713,0.10035653019883914
1.155,2.111546869160953e-06,0.0005636225999155533,-0.007105130038568251,-44.60594318033134,48.73709226279062,4.822393519614863,-1656443.260046052,5091560.1799183125,3599120.866527,-176.0132338067485,-4939.338913821047,6894.254846434848,0.9949532557652605,-3.655080700684994e-05,0.00034161353175926715,0.10033892966511881
1.16,-2.7085776082528492e-05,0.0005729100108649404,-0.0070706885363073105,-44.58351805548699,48.71375651367846,4.832226387494532,-1656444.1394085914,5091535.48321971,3599155.338237756,-175.73178197742186,-4939.340527140056,6894.429456028465,0.994955037429008,-3.6693006017386245e-05,0.0003430153574872765,0.10032125641522402
1.165,-1.577449691993926e-05,0.0005655894382217467,-0.0070898299822193915,-44.5826098212422,48.6910427394018,4.827610299743837,-1656445.0173642724,5091510.78651314,3599189.8108214587,-175.45049043079536,-4939.342100734866,6894.604025080101,0.9949568101296573,-3.691012985215558e-05,0.0003444329648767541,0.10030366882717767
1.17,3.8648935086122615e-06,0.0005633110207788437,-0.007077156093025793,-44.5703956609084,48.66377823378063,4.819782216727089,-1656445.8939136057,5091486.089798767,3599224.2842777665,-175.16924293195626,-4939.343648901312,6894.77849789072,0.9949585873237954,-3.709729887131522e-05,0.0003458351976643217,0.10028603358615706
1.175,7.99136729413025e-06,0.000576278502725125,-0.0070588540764778655,-44.560647453634196,48.64053947149432,4.818882733050376,-1656446.7690569488,5091461.393076652,3599258.758606152,-174.8880942573434,-4939.345197001252,6894.952856345347,0.9949603610301891,-3.7235034737067774e-05,0.00034723668808208394,0.10026842982170558
1.18,1.6493282326184955e-05,0.0005733143858991725,-0.007073028408108395,-44.54907652065225,48.611595505506756,4.815928166327855,-1656447.642794772,5091436.696346855,3599293.233806128,-174.60703500280604,-4939.346721893424,6895.127134127784,0.9949621298252481,-3.736574108130359e-05,0.0003486714698083282,0.10025087154540695
1.185,-2.760645184872307e-06,0.0005560973904204617,-0.007049304739468775,-44.53175461421554,48.59490134301132,4.822516829045804,-1656448.5151275618,5091411.999609495,3599327.709877223,-174.32608093750412,-4939.348222262628,6895.301303806821,0.9949639018636269,-3.747456917230965e-05,0.00035010100795196793,0.10023327797317613
1.19,1.370639554220852e-05,0.0005806230236957945,-0.00707536554987585,-44.5226170421491,48.56851974258274,4.826215584067585,-1656449.3860558844,5091387.3028646875,3599362.186819099,-174.0452481317483,-4939.349700420312,6895.475446584776,0.994965667658477,-3.7626954604732754e-05,0.00035148289777522685,0.10021574339845996
1.195,4.632590503861362e-06,0.0005779408616091576,-0.007067335156829145,-44.51507578531604,48.54204540461784,4.804279792945308,-1656450.2555802886,5091362.606112614,3599396.664631486,-173.76451351099882,-4939.351128748013,6895.649508226074,0.9949674396504133,-3.7744547211173573e-05,0.0003529299160862682,0.10019814395149525
1.2,1.1410972947976342e-05,0.0005726457477622585,-0.007047274715596873,-44.505536071037504,48.52428795421538,4.808316976853575,-1656451.1237011654,5091337.90935328,3599431.143313795,-173.48383718871975,-4939.352604770957,6895.823415398677,0.9949692093192442,-3.7884031202581295e-05,0.00035436799043811056,0.10018056445621402
1.205,2.7739842546870554e-06,0.0005682715614801754,-0.0070676125025037565,-44.488721376118136,48.489788093321216,4.807893978196732,-1656451.9904188728,5091313.212586643,3599465.622865528,-173.203245822618,-4939.354050251974,6895.997277773037,0.9949709736574642,-3.800531053688546e-05,0.000355794593046192,0.10016303482284057
1.21,-9.067621326866835e-06,0.0005825956754080826,-0.007059118008555885,-44.48344452318036,48.47604863616652,4.807960468774216,-1656452.8557339783,5091288.51581287,3599500.1032862742,-172.92279635262634,-4939.355459161629,6896.171020838634,0.9949727427797345,-3.8146996502659365e-05,0.0003572081503719737,0.10014545457741188
1.215,9.671941324379284e-06,0.0005476892059381861,-0.007042323397184649,-44.459653695852964,48.4521246246023,4.802929357922983,-1656453.71964697,5091263.819032088,3599534.5845756284,-172.64240038904344,-4939.35685368537,6896.344720793173,0.9949745094490594,-3.832171629491524e-05,0.0003586543739456004,0.10012789543923209
1.22,-1.1829437277792488e-05,0.0005741922578083831,-0.00703280147878066,-44.446964391897914,48.43035930501965,4.808422078661521,-1656454.582158353,5091239.122244283,3599569.0667332737,-172.362152720308,-4939.358268391002,6896.518337254724,0.9949762716363236,-3.8441069770328167e-05,0.00036001846228015625,0.10011037803180912
1.225,-4.657933126899445e-06,0.0005688759482239357,-0.0070373888768120564,-44.448739779777895,48.38381134951971,4.797954422687499,-1656455.4432687676,5091214.425449502,3599603.549758865,-172.08201315338442,-4939.359644031418,6896.691899238986,0.9949780311046114,-3.86205311437598e-05,0.000361443094909132,0.10009288429521282
1.23,-1.1444441316699116e-05,0.0005763779255931721,-0.007044771041015486,-44.4370502255651,48.36591492821656,4.78426268913565,-1656456.3029786523,5091189.728647999,3599638.0336517366,-171.8019407372386,-4939.360956931725,6896.865249517009,0.9949797914165031,-3.878082761576358e-05,0.0003628562974958749,0.10007537911058287
1.235,-1.0422628104448837e-06,0.0005574717825022163,-0.007044576604955979,-44.414931105980564,48.342093823099084,4.79421910670016,-1656457.161288355,5091165.031839823,3599672.518411127,-171.52194034582422,-4939.362313195788,6897.038506550292,0.9949815532575245,-3.895988877665741e-05,0.0003642864621374718,0.10005785553740743
1.24,7.537183116810145e-06,0.000580464688890534,-0.007044645919359933,-44.40427579079247,48.306669008801165,4.796284529976611,-1656458.0181984555,5091140.335024972,3599707.0040366957,-171.2420997743567,-4939.363627362349,6897.2117209967355,0.9949833147575254,-3.910834553865946e-05,0.0003656722005744234,0.10004033240901461
1.245,-4.424724451503872e-06,0.0005891703907477676,-0.007060217051244419,-44.39274139842574,48.29978573840168,4.79475813558614,-1656458.8737096505,5091115.638203703,3599741.4905280336,-170.96237825084253,-4939.364880397801,6897.384814200814,0.9949850759440572,-3.924121188295876e-05,0.0003671172785125272,0.10002280906688221
1.25,-1.579579598472702e-06,0.000554681888690062,-0.007033425787940574,-44.37432883541843,48.271887821943714,4.787211918061424,-1656459.7278224058,5091090.941376117,3599775.977884801,-170.68272392840314,-4939.366153821239,6897.557892797857,0.9949868407036726,-3.940602422670468e-05,0.0003685810187577162,0.10000524697095829
1.2550000000000001,-1.2875449087701946e-06,0.0005469322741988764,-0.0070217385647196465,-44.36399771129815,48.234384080179446,4.787959871709812,-1656460.5805372098,5091066.24454214,3599810.466106684,-170.4031976302642,-4939.367437146594,6897.730860257254,0.9949885984863387,-3.955511208913908e-05,0.0003699596838363813,0.09998775148695394
1.26,9.132433088598643e-06,0.0005367043664120674,-0.007032080411388851,-44.36206572331286,48.221152347096286,4.778614233069389,-1656461.431854681,5091041.547701899,3599844.9551930698,-170.1237909292093,-4939.368659064672,6897.903694046857,0.9949903530457451,-3.970152553549942e-05,0.00037131914601045096,0.0999702850440278
1.2650000000000001,1.5121002475763318e-05,0.0005491345281210793,-0.007021167511002159,-44.34417229062246,48.18427003113173,4.774558320063031,-1656462.2817751826,5091016.850855507,3599879.4451434487,-169.8444096372949,-4939.369897945555,6898.076457607758,0.9949921098914845,-3.981947290873266e-05,0.00037265576958925864,0.09995279283631466
1.27,9.745068469529346e-06,0.0005539916678542853,-0.007026129225203968,-44.32667158025049,48.15974985905721,4.768657896568134,-1656463.130299143,5090992.154002984,3599913.9359573,-169.56517457298742,-4939.371111242921,6898.249082792229,0.9949938636904292,-3.9925619727941383e-05,0.0003740248103563976,0.09993532773638118
1.2750000000000001,3.766240924485939e-07,0.0005756267913105482,-0.007010940994309521,-44.321007379537264,48.142671509345995,4.772784558075378,-1656463.9774272281,5090967.457144371,3599948.4276340427,-169.28605943698753,-4939.3723338045,6898.421614330358,0.9949956184152497,-4.004635722726874e-05,0.0003754045894585124,0.09991785026779935
1.28,-8.368038088203695e-06,0.000549278776480687,-0.007032103930814138,-44.30132479745285,48.11339823085665,4.767915508249076,-1656464.8231599033,5090942.760279739,3599982.92017333,-169.00701065020584,-4939.373519007046,6898.594100763395,0.9949973690165707,-4.019578870018812e-05,0.00037683584691043263,0.09990041055544037
1.285,-9.827405829830447e-06,0.000560761703428117,-0.0070133481843179055,-44.29171739234928,48.07993291962453,4.76300595708294,-1656465.6674976835,5090918.063409184,3600017.4135747794,-168.72810141380467,-4939.374702918415,6898.7664789040155,0.9949991246187362,-4.0360411943952135e-05,0.0003781993776168984,0.09988291818032137
1.29,-1.3277730561186596e-05,0.0005811737691846947,-0.007035831891280485,-44.280148584283154,48.05811185013236,4.765318013618304,-1656466.510441172,5090893.366532789,3600051.9078377853,-168.44929396785128,-4939.375855493736,6898.938723322714,0.9950008752178333,-4.053151498635229e-05,0.00037959110943941194,0.09986547242932138
1.295,-5.203509167940422e-07,0.0005505715334873469,-0.006982746535914124,-44.26555213885609,48.02963330704915,4.751354202209331,-1656467.3519908707,5090868.669650702,3600086.402961851,-168.17058550754382,-4939.376979024655,6899.110903112634,0.9950026311016822,-4.0716318194494836e-05,0.0003810327525032934,0.09984797072025435
1.3,-1.7722838371158155e-05,0.0005641136870597242,-0.006978918981856605,-44.2557514880437,48.00687763525741,4.756467218813208,-1656468.1921472861,5090843.972762933,3600120.8989464794,-167.8919806610199,-4939.378128541609,6899.28294822828,0.9950043734572916,-4.086169782829074e-05,0.0003824014620865959,0.0998306010214604
1.305,-6.731170074344317e-06,0.0005254760583796447,-0.006981251531154837,-44.244098373111605,47.98645951724358,4.7494603929704216,-1656469.030910918,5090819.275869532,3600155.395791178,-167.61347210389198,-4939.379232168839,6899.4549312539675,0.9950061145379432,-4.105324496936115e-05,0.000383799564862107,0.09981324082821141
1.31,1.562909536339317e-05,0.0005563760860205841,-0.007002559849960003,-44.231510671555604,47.95538073952982,4.741939838994671,-1656469.8682822192,5090794.578970584,3600189.8934955797,-167.33504838710212,-4939.380346828798,6899.626829302994,0.9950078559340055,-4.120781102568044e-05,0.0003851042983737594,0.09979587479554973
1.315,1.1252943495563398e-05,0.0005420465564431273,-0.0069868827465588874,-44.208473855832544,47.929663463817135,4.744050834624722,-1656470.7042616706,5090769.882066087,3600224.3920591488,-167.05673212583537,-4939.381451963746,6899.798598375242,0.9950096023129883,-4.131448522294274e-05,0.0003864914726531167,0.09977845570264109
1.32,9.810513814324153e-06,0.0005549896196702847,-0.00700008154979646,-44.20511650169081,47.90125435135759,4.746799907197815,-1656471.5388499333,5090745.185156099,3600258.891481384,-166.7785730108096,-4939.382543286457,6899.9702958161415,0.9950113444886317,-4.1428455596825244e-05,0.0003878419117697869,0.0997610755819124
1.325,-5.958548425169184e-06,0.0005565329493949626,-0.006982765848032321,-44.18303085926158,47.88424437461618,4.746390269708748,-1656472.3720475866,5090720.488240811,3600293.3917618645,-166.50048833610293,-4939.383571835665,6900.141896284812,0.9950130896373659,-4.1549254875096815e-05,0.00038922418589117444,0.09974366259816177
1.33,-1.098612760770203e-06,0.0005629868932139958,-0.006973813942375741,-44.17613269533436,47.85306552299956,4.736300676479273,-1656473.2038551518,5090695.791320345,3600327.892900237,-166.2225376930665,-4939.384614575046,6900.313452646182,0.9950148301592332,-4.1709648193142644e-05,0.000390606368614668,0.09972629267230548
1.335,-3.0120517914027503e-06,0.0005554346033746222,-0.006976973334853568,-44.1498055993441,47.82430114427724,4.740003558290281,-1656474.0342731606,5090671.094394693,3600362.394896038,-165.94466583447678,-4939.385645998034,6900.4848677694035,0.9950165681386691,-4.1859552556294225e-05,0.00039200581823491717,0.09970894497868027
1.34,-8.499487380266526e-06,0.0005467872601575886,-0.006995892441554158,-44.15362037185211,47.79240512224017,4.74208307014904,-1656474.8633022585,5090646.397463936,3600396.897748722,-165.66697334518037,-4939.386657014939,6900.656205966944,0.9950183066083254,-4.2012337184590494e-05,0.00039338600380330453,0.09969158939808455
1.345,-9.127658404077901e-07,0.0005518097170139917,-0.006963755804676295,-44.128175810754165,47.7639653990073,4.7342573645773545,-1656475.690943013,5090621.70052833,3600431.4014578005,-165.38932845251318,-4939.387585183297,6900.827425242607,0.995020049495665,-4.217663548496667e-05,0.0003947433089738993,0.09967418673104829
1.35,1.7263643828832214e-05,0.0005597759631360008,-0.006979782408243402,-44.12576127256192,47.73498807687149,4.732715572380877,-1656476.517195943,5090597.0035880245,3600465.9060227033,-165.11184357129812,-4939.388537346954,6900.998535941211,0.9950217840660162,-4.2323281231258904e-05,0.00039611500152601185,0.09965686396695286
1.355,-4.4544718293854555e-06,0.000564599847353273,-0.006984441662515496,-44.107900779591425,47.70888376032169,4.719883005077738,-1656477.3420616128,5090572.30664308,3600500.4114428796,-164.83442434331857,-4939.3894403612985,6901.16953453417,0.9950235223191094,-4.242671275438034e-05,0.0003975110372423182,0.09963950128649861
1.36,7.989097198321448e-06,0.0005480101901902854,-0.006967185274812828,-44.10022783068183,47.69705381382014,4.7234140197227426,-1656478.165540475,5090547.609693537,3600534.91771775,-164.55712046463069,-4939.390376898442,6901.340413809314,0.9950252614205825,-4.258537560815515e-05,0.0003989136620826579,0.09962212700639099
1.365,-3.36957677002391e-06,0.0005543337628757981,-0.006966184168882861,-44.082695068378385,47.65525963650302,4.717689845365674,-1656478.9876329803,5090522.912739358,3600569.424846958,-164.27988167300742,-4939.391294491646,6901.511269164433,0.9950269959375798,-4.2708935333232224e-05,0.00040027811995522425,0.09960479561150234
1.37,3.1668549690590405e-06,0.0005442610716631375,-0.006976139244142586,-44.06759008741139,47.63289099856969,4.717203557514846,-1656479.8083396694,5090498.21578067,3600603.9328300334,-164.00279394024997,-4939.392180832869,6901.68196102739,0.995028729894026,-4.286232415696712e-05,0.0004016554796803346,0.09958746668722025
1.375,3.826921506138717e-06,0.0005588295357403213,-0.006953787526398238,-44.05900513213363,47.60593261274782,4.72260642965434,-1656480.6276612,5090473.51881758,3600638.4416663884,-163.7258183261345,-4939.3930549965435,6901.852580971367,0.9950304660356902,-4.2996955335953994e-05,0.00040300940903978286,0.09957011296305356
1.3800000000000001,-7.378616542738697e-06,0.0005638694687366107,-0.006959703381718593,-44.02892852837378,47.582294955717835,4.715812356988417,-1656481.4455980991,5090448.821850268,3600672.9513556445,-163.4489413407605,-4939.39386989387,6902.023121479837,0.9950321962952614,-4.313354847518386e-05,0.0004043997451501637,0.09955281480787784
1.385,1.647133290676967e-05,0.0005419806626941326,-0.0069551916668439805,-44.02996512927072,47.55453607177279,4.7137498604357635,-1656482.2621510471,5090424.124878781,3600707.461897397,-163.17223783130103,-4939.394725126794,6902.19357951602,0.9950339277179446,-4.3299276608833115e-05,0.0004057998288813573,0.09953550191701266
1.3900000000000001,-1.4930415538265675e-05,0.0005467683091167308,-0.006947887602052468,-44.00326118339507,47.5206645172313,4.707763937599806,-1656483.0773205955,5090399.427903146,3600741.973291161,-162.89558158332954,-4939.395528966533,6902.363926084816,0.9950356577397877,-4.340022459674944e-05,0.00040715139750749065,0.09951820019729088
1.395,-3.884409945495393e-06,0.0005861258958910032,-0.006952124622825435,-43.99279705175894,47.49162364038714,4.704558519278073,-1656483.891107307,5090374.730923474,3600776.485536346,-162.61910300388152,-4939.396339508987,6902.534148080847,0.9950373856337623,-4.35804709302516e-05,0.0004085070638859422,0.09950091664828367
1.4000000000000001,1.2052378426566202e-05,0.0005741385065118456,-0.006960928122158528,-43.978989996355914,47.46067503581679,4.700543905492507,-1656484.703511875,5090350.033939816,3600810.9986323654,-162.34272410359742,-4939.397123723156,6902.704259582423,0.9950391142403228,-4.37430338962325e-05,0.0004099633830734408,0.09948362251348405
1.405,2.3342336826747024e-06,0.0005415572120209963,-0.0069392088030593895,-43.95673106327727,47.439940004139025,4.7014948807142645,-1656485.5145348408,5090325.336952289,3600845.5125786476,-162.0664622755797,-4939.3978871978725,6902.8742533417535,0.9950408447473708,-4.386298017990664e-05,0.0004113938449936734,0.09946630643379716
1.41,1.6434063115537948e-05,0.0005486558142755252,-0.0069367040419958115,-43.95169119063814,47.401754450129594,4.700099477802691,-1656486.3241768554,5090300.639960943,3600880.0273747602,-161.79034357521184,-4939.398651137107,6903.044191665537,0.9950425695836738,-4.399897713710316e-05,0.0004127408433037055,0.09944904436647976
1.415,-3.386957971344954e-06,0.0005437243631483384,-0.006955130648088496,-43.940681630293874,47.38829346559468,4.687923123729148,-1656487.1324385114,5090275.9429659415,3600914.5430201967,-161.51431885730852,-4939.399349449493,6903.2139829430835,0.99504429349026,-4.410166154319202e-05,0.0004141090058292926,0.09943178848458882
1.42,1.3914153524897317e-06,0.0005667705334321694,-0.006938483464884037,-43.92062885373342,47.35564504873198,4.687484585410254,-1656487.9393202008,5090251.245967334,3600949.05951441,-161.2383568613668,-4939.400093678945,6903.383702373296,0.9950460216783439,-4.42524461396794e-05,0.00041545997156792997,0.09941448675537082
1.425,3.4396341819875513e-06,0.0005445863809244275,-0.006918378465991702,-43.89978435307177,47.32137404532671,4.686325800251152,-1656488.7448224619,5090226.548965069,3600983.5768569466,-160.96254756691368,-4939.400811945268,6903.5533122164725,0.9950477454035539,-4.43970544869168e-05,0.000416869456621124,0.09939722640024727
1.43,-1.147513767450027e-05,0.0005624247540149622,-0.0069438939879830405,-43.888942319356495,47.29420269077228,4.678066468040986,-1656489.5489460719,5090201.851959278,3601018.0950472383,-160.68689649538393,-4939.401504923872,6903.722804503843,0.9950494638557024,-4.453103407060616e-05,0.00041822426702079146,0.09938001602902281
1.435,-3.0957268708423943e-06,0.0005711614273702204,-0.006933574643110811,-43.87623107401086,47.273980052080894,4.678676576056622,-1656490.3516916556,5090177.154950024,3601052.6140846997,-160.41133690033703,-4939.4021964771055,6903.892180005703,0.9950511883261969,-4.470657460285536e-05,0.00041961974403679396,0.09936274216836084
1.44,4.0103190773852586e-06,0.0005485153923051399,-0.006932908867462148,-43.86102404278888,47.23556603222293,4.679188797307428,-1656491.1530596882,5090152.457937354,3601087.1339688827,-160.13587616075745,-4939.402871484088,6904.061493315157,0.9950529099236446,-4.4863429688991284e-05,0.0004210390371751237,0.09934549393852381
1.445,-1.646913815854314e-05,0.0005623896933153592,-0.006923318025210879,-43.8404371857097,47.20763460429283,4.678771961430429,-1656491.9530507731,5090127.760921442,3601121.6546992967,-159.8605578606713,-4939.403493539263,6904.230672273931,0.9950546310794716,-4.499698237767435e-05,0.0004224037601371954,0.09932824732991019
1.45,-2.5193753190629082e-05,0.0005585704290022934,-0.006909152747717056,-43.82993251408155,47.178930636618944,4.669881109800428,-1656492.7516656334,5090103.063902454,3601156.176275381,-159.58538621107877,-4939.40410142412,6904.399761255985,0.9950563495363107,-4.518491564666855e-05,0.00042379791279782925,0.099311024569903
1.455,3.633218552588797e-06,0.0005545608252803937,-0.006917646464793137,-43.811447246303,47.14872488935445,4.665765244276321,-1656493.548904865,5090078.3668804355,3601190.6986965965,-159.31030642602354,-4939.404706142572,6904.568725166078,0.9950580641798471,-4.539358936535671e-05,0.000425180399846915,0.0992938370278084
1.46,-9.010396410374846e-06,0.0005683365005091968,-0.00689691658200919,-43.80251804055089,47.12185518501131,4.667762303461626,-1656494.344769039,5090053.669855416,3601225.221962354,-159.03536313224146,-4939.405301722394,6904.737577746262,0.9950597806401795,-4.552956549971696e-05,0.0004265600671845569,0.0992766282963196
1.465,5.700283671541987e-06,0.0005430212626440197,-0.006900645957092632,-43.78083136697454,47.0815525870671,4.669330859827704,-1656495.1392587349,5090028.9728275305,3601259.746072153,-158.76051532644215,-4939.405852202915,6904.906341860667,0.9950614916407208,-4.5700391402354435e-05,0.00042797086776598847,0.09925947111562831
1.47,-1.328671786827427e-05,0.000551520329209917,-0.006891774600802899,-43.77577659771739,47.05864691362925,4.664167264054642,-1656495.9323746327,5090004.275797014,3601294.271025438,-158.4858437124856,-4939.406354399656,6905.074972116794,0.9950632032975577,-4.582834426050311e-05,0.0004293223426831421,0.09924230461497906
1.475,-2.8274461972350178e-06,0.000543541547874759,-0.006889571058384423,-43.76664355718921,47.03649939436498,4.641368721737529,-1656496.7241173266,5089979.578764026,3601328.796821635,-158.21123388010463,-4939.4068408999,6905.243506790782,0.9950649124444306,-4.6005629417081766e-05,0.0004306902504748085,0.09922516017295115
1.48,-3.936322776949925e-06,0.0005680510976535216,-0.006884642017837054,-43.73433863503645,47.01302666693932,4.653079344644797,-1656497.5144871115,5089954.881728445,3601363.32346016,-157.93668011326758,-4939.407391271219,6905.411902954293,0.9950666207573212,-4.615491381205055e-05,0.00043204090443518567,0.09920802117261664
1.485,1.890581590887921e-05,0.0005574732959476456,-0.006890928811875187,-43.72359951289498,46.97757910168505,4.6533487406204594,-1656498.3034846447,5089930.184690183,3601397.8509405935,-157.66233315109824,-4939.407913811304,6905.580270636141,0.9950683275241989,-4.631303024438897e-05,0.0004334522553989549,0.09919089440285898
1.49,-5.521753290876828e-07,0.0005367194304075398,-0.006878729781002417,-43.70786423661366,46.94886833979151,4.643697130854792,-1656499.0911107347,5089905.487649444,3601432.3792625493,-157.38810284884934,-4939.408381949582,6905.748511581969,0.9950700355671469,-4.641170669961863e-05,0.000434842955747223,0.09917375194049202
1.495,1.0544345287413392e-05,0.0005373324667322332,-0.006884853681899306,-43.69466841748593,46.920013785374394,4.645410231056416,-1656499.8773659589,5089880.790606338,3601466.908425402,-157.11398686228833,-4939.408860480169,6905.916629504451,0.9950717403091814,-4.655362944262939e-05,0.0004361772042020091,0.09915663981934476
1.5,8.99300929615391e-06,0.0005290507290229933,-0.006882129061051766,-43.66414796094774,46.88830827208392,4.642546184687558,-1656500.6622508976,5089856.093560939,3601501.438428609,-156.83998861795556,-4939.409299119176,6906.084653488295,0.995073446273573,-4.6668106230888806e-05,0.0004375157275862305,0.09913951242219561
1.5050000000000001,1.452024751257212e-05,0.0005314069527616415,-0.006863234756084186,-43.65345378482018,46.86027752270108,4.64071822592426,-1656501.445766332,5089831.396513329,3601535.969271676,-156.56618511679196,-4939.409744719991,6906.252573281088,0.9950751512750978,-4.6784386639629667e-05,0.0004388332643180474,0.09912239177616877
1.51,-9.865650926928564e-06,0.0005403030070161175,-0.006862068411741722,-43.63728560456296,46.82838341905229,4.629576761066742,-1656502.2279130002,5089806.699463564,3601570.500954086,-156.29248209342973,-4939.4101611560845,6906.4203905303375,0.9950768512970556,-4.6887480148799626e-05,0.000440158034361346,0.09910531809749962
1.5150000000000001,1.6565934874406216e-05,0.0005577787519715455,-0.006865520018927827,-43.63054405579601,46.8028581550326,4.631718541735499,-1656503.008691453,5089782.002411692,3601605.033475232,-156.01889904003363,-4939.410587383581,6906.588067930317,0.9950785507227006,-4.705344108389889e-05,0.00044149889312458776,0.09908824731677782
1.52,7.33299722235856e-06,0.0005371755502376593,-0.006867223890449789,-43.61368630655863,46.771426344710164,4.632739333295918,-1656503.7881021989,5089757.305357808,3601639.5668345536,-155.74539931456815,-4939.410966476197,6906.755660813601,0.995080250692325,-4.715798115678693e-05,0.00044288977334717175,0.0990711678889126
1.5250000000000001,5.146740719959249e-06,0.0005587602024345539,-0.006855277985181498,-43.59939786293923,46.74627365516186,4.6204009680483225,-1656504.5661457907,5089732.608302117,3601674.1010315814,-155.47203745519616,-4939.411309874351,6906.923150310738,0.9950819508105995,-4.728038892890609e-05,0.0004442271118448868,0.09905408420559812
1.53,1.4891018975795597e-05,0.0005495995594624863,-0.006865989722527062,-43.57783168161286,46.70978344907087,4.625009753268092,-1656505.342822818,5089707.911244644,3601708.6360657634,-155.19877353649022,-4939.411679449225,6907.090522460877,0.995083647651766,-4.741356730112425e-05,0.0004456176064735297,0.09903703021071648
1.5350000000000001,-5.933039261821647e-06,0.0005372923254325205,-0.006864402464970104,-43.56675835810138,46.6804744032872,4.62067024401471,-1656506.1181339577,5089683.214185452,3601743.171936531,-154.9256822391402,-4939.411997148672,6907.25778450785,0.9950853468617981,-4.7520248555589724e-05,0.00044698772329641385,0.09901994952905377
1.54,-1.5975853488293303e-05,0.0005445112354318921,-0.00684534877608117,-43.54060640566765,46.646399222965314,4.612888941084636,-1656506.8920798935,5089658.517124726,3601777.7086433223,-154.65269213170941,-4939.412293338127,6907.4249320668005,0.9950870453952253,-4.767568565606404e-05,0.00044832206831177444,0.09900287279141426
1.545,1.5033354344418023e-05,0.0005513127910303843,-0.006826656003085931,-43.529016695940484,46.622237365462404,4.614109989898219,-1656507.6646613113,5089633.820062489,3601812.2461855235,-154.37987498720696,-4939.412601423267,6907.5919483939215,0.9950887389093782,-4.785787180488617e-05,0.0004496718884065512,0.09898584343511117
1.55,-1.7095031493637008e-05,0.0005216935965800315,-0.006850749353719922,-43.52086615462793,46.58403029303384,4.606110378724735,-1656508.435878897,5089609.122998788,3601846.7845626124,-154.10715927386443,-4939.41287899533,6907.758887067425,0.9950904275012922,-4.796457778610716e-05,0.00045104630466557524,0.09896886051645758
1.555,5.0386018913879094e-06,0.0005349785824500266,-0.006829516961359547,-43.496648335724984,46.56138227546016,4.601468742889718,-1656509.205733152,5089584.425933783,3601881.3237739857,-153.8345427463377,-4939.413122963402,6907.9256624176705,0.9950921217913232,-4.814390909944906e-05,0.00045233908418636925,0.09895181767082073
1.56,2.3824402962730357e-05,0.0005369380492344205,-0.006860033222068252,-43.48194821547132,46.525211617780954,4.600256904859515,-1656509.974224694,5089559.728867504,3601915.863819042,-153.5620741077045,-4939.413388807755,6908.092360127759,0.9950938105238112,-4.8271440311253684e-05,0.0004536703909997058,0.09893482758991262
1.565,-1.4033020249442036e-06,0.0005325377305288782,-0.006849200183507452,-43.46285662295858,46.49483907323198,4.596607457622262,-1656510.7413542273,5089535.031800001,3601950.4046972604,-153.28973913332513,-4939.4136123779435,6908.258927079022,0.9950955065109748,-4.8352756682494556e-05,0.00045501121505487,0.09891776154195833
1.57,9.458319568406227e-06,0.0005491317730504919,-0.006835553233822311,-43.43922031955369,46.46084787982754,4.589169755692115,-1656511.5071224354,5089510.334731406,3601984.946408037,-153.01754409126846,-4939.413825601911,6908.425383628233,0.9950971995271432,-4.849573248204219e-05,0.0004563348547714282,0.09890072244377793
1.575,5.196152187574606e-07,0.000528359488121348,-0.006819477771048571,-43.427466676138835,46.44296221248559,4.591078824790032,-1656512.271530073,5089485.637661731,3602019.4889507666,-152.74551095194684,-4939.4140443635,6908.591708134613,0.9950988888584658,-4.8615774682285864e-05,0.0004577024632768269,0.0988837172521773
1.58,-1.9875504406409705e-05,0.0005697983783252915,-0.00683568603489157,-43.41079027935114,46.41222418593632,4.5929385224584705,-1656513.0345777743,5089460.940591008,3602054.032324993,-152.47356963884613,-4939.414244617352,6908.757982523114,0.9951005739467447,-4.875290060886519e-05,0.00045901618767693917,0.09886675203602867
1.585,-8.87527804520083e-06,0.0005350327076361029,-0.00679822293831489,-43.40469365746112,46.36476020785862,4.580801972631979,-1656513.7962661113,5089436.24351938,3602088.5765303452,-152.201765085027,-4939.414407013895,6908.924158384542,0.9951022626993299,-4.895102543012124e-05,0.0004604279586274206,0.09884974648711055
1.59,-6.417925160214953e-06,0.0005394303347048634,-0.006810879788545261,-43.377842047573026,46.34883618927072,4.576737065063624,-1656514.556595678,5089411.546447045,3602123.1215660414,-151.93006161709644,-4939.414526575608,6909.09012002289,0.9951039419443111,-4.9113149794708696e-05,0.00046175596395799275,0.09883283409991603
1.595,8.533757325678619e-06,0.0005378616316750273,-0.0068045070582383954,-43.35914676887137,46.31637809206138,4.576706823750827,-1656515.3155670983,5089386.849374013,3602157.667431429,-151.65850655627546,-4939.414686489333,6909.256035005169,0.9951056240220326,-4.92702620269553e-05,0.0004630955150080134,0.09881589019336165
1.6,-2.88159609610774e-06,0.0005313047778752304,-0.006798727241942497,-43.3418720315,46.27601950262535,4.570985144937229,-1656516.0731811097,5089362.152300256,3602192.2141261185,-151.3870979334056,-4939.414816122121,6909.421840798081,0.9951073042390528,-4.938978307659168e-05,0.00046443485780454035,0.09879896209473808
1.605,1.1125101454131111e-05,0.0005503550029635666,-0.006808642425143344,-43.32670486347212,46.246896163001416,4.570534313325165,-1656516.8294384447,5089337.455225924,3602226.761649441,-151.11583612707003,-4939.414916775881,6909.587488213477,0.9951089827451763,-4.9536076629045463e-05,0.00046575506968416386,0.09878204836027886
1.61,1.2976090775625595e-05,0.0005511405731105576,-0.006788389891627802,-43.31315166159899,46.214294883707986,4.564272847964787,-1656517.5843397812,5089312.758151159,3602261.310000751,-150.84469840320656,-4939.414989262036,6909.7530359196435,0.9951106633897394,-4.965224078644173e-05,0.00046712613185124596,0.09876510991167194
1.615,2.235145209303668e-05,0.000538237092527867,-0.0068029125615709915,-43.291224410789695,46.19555659817741,4.557400432060344,-1656518.3378857179,5089288.061076073,3602295.8591794716,-150.57367625408367,-4939.415045145043,6909.918452243473,0.9951123387436561,-4.976397039747464e-05,0.00046849960775244493,0.09874822181586798
1.62,4.213396001938253e-06,0.000545617750451884,-0.006784952758405827,-43.28146303435502,46.15216347581534,4.560710286076927,-1656519.0900768628,5089263.36400062,3602330.409185099,-150.30278178632753,-4939.415135832649,6910.08379859388,0.9951140174100044,-4.984920766997894e-05,0.0004698432951795835,0.09873129755278322
1.625,9.4517363072733e-06,0.0005294297033806493,-0.00678462326385917,-43.249038739746645,46.10826687487674,4.5594906904827095,-1656519.8409138608,5089238.666924932,3602364.9600170786,-150.03201737064933,-4939.415139582559,6910.248993369958,0.9951156913435323,-4.998136917177829e-05,0.0004712008692143828,0.09871441796154959
1.6300000000000001,-3.977875245926802e-07,0.0005341066052803842,-0.00679021043173634,-43.24043100995751,46.09712848633273,4.552807009956561,-1656520.5903976038,5089213.969849285,3602399.5116746626,-149.76147984984777,-4939.415119327317,6910.414040223806,0.9951173649273688,-5.009650340026347e-05,0.00047251946345408985,0.09869753915730159
1.635,-3.158429963594481e-05,0.0005307317359875685,-0.006802420985134436,-43.2201695297173,46.06487039810839,4.555678282135667,-1656521.3385287956,5089189.2727736775,3602434.0641573574,-149.49099685963563,-4939.415123453037,6910.579037667713,0.9951190395947616,-5.023730179162408e-05,0.00047384726171348954,0.09868064643579104
1.6400000000000001,-9.807988865105407e-06,0.000542758247089378,-0.006799650987023782,-43.202649971450576,46.031262517998734,4.545529962626471,-1656522.0853079644,5089164.575698146,3602468.617464792,-149.22067064224817,-4939.415089445637,6910.743936041345,0.9951207169855544,-5.04548677774893e-05,0.0004751589685470301,0.09866372334560007
1.645,-6.506615733458085e-06,0.0005162461042586848,-0.006790076081792655,-43.18658134419704,45.994537381065385,4.539837805994653,-1656522.8307358273,5089139.878622772,3602503.17159636,-148.95047454143526,-4939.415059938098,6910.908691207091,0.9951223933920891,-5.062122176407994e-05,0.00047650596649738484,0.09864680709052986
1.6500000000000001,-1.1398142151056944e-05,0.0005323789736446161,-0.006761449027489655,-43.17577539056848,45.967261181032164,4.534823831018145,-1656523.574813047,5089115.1815476045,3602537.7265513423,-148.680413320114,-4939.415007187749,6911.073301790184,0.9951240671803884,-5.0772812808372984e-05,0.000477787822628356,0.09862991462674958
1.655,3.252018747537604e-05,0.0005646355421038068,-0.006761491337967208,-43.15556200903479,45.934593015359724,4.534377725416677,-1656524.3175401986,5089090.484472738,3602572.2823291062,-148.41044736072405,-4939.414939555298,6911.237803792916,0.9951257336028305,-5.094051679175199e-05,0.0004791086116445187,0.09861309335697022
1.6600000000000001,-2.246821496542235e-05,0.0005544808248973851,-0.006754812628931134,-43.137709517345684,45.90525974257251,4.533847750181871,-1656525.0589179029,5089065.787398274,3602606.838929105,-148.14063437161937,-4939.414845774468,6911.402195674846,0.9951273997164425,-5.1006912461246425e-05,0.00048052047617671266,0.09859627189685513
1.665,-4.883843210566455e-06,0.0005681856468865824,-0.006751466560366592,-43.10909436489417,45.86292739566291,4.528961352276277,-1656525.7989468833,5089041.090324338,3602641.3963508164,-147.8709577221736,-4939.414728967252,6911.566488878742,0.9951290639029865,-5.1207598214638e-05,0.0004818935242004299,0.09857946709117031
1.67,2.1464771136090943e-05,0.0005390075519178787,-0.006757152893303248,-43.09634642838685,45.83957862668778,4.528697614519542,-1656526.5376279857,5089016.393251019,3602675.9545936063,-147.60148326784622,-4939.414598355349,6911.730627057832,0.9951307269650329,-5.1367910658819564e-05,0.0004833050013258867,0.0985626705586792
1.675,-1.2604291548655108e-05,0.0005464527956058023,-0.0067352871039099765,-43.0783019087057,45.79951356451341,4.528977305365971,-1656527.2749619735,5088991.696178406,3602710.5136568923,-147.33211187994485,-4939.414447051414,6911.894687446541,0.9951323911812181,-5.1455489492074045e-05,0.000484650380009721,0.09854585982319534
1.68,2.9196740366304344e-06,0.0005502888909775372,-0.006754113850911085,-43.05151300516162,45.77004967262286,4.518945561537461,-1656528.0109494978,5088966.999106674,3602745.073540131,-147.06289779964698,-4939.414245198419,6912.0586079076265,0.9951340497121455,-5.162963413181636e-05,0.0004860058904627888,0.09852910349820818
1.685,-1.660668901227703e-05,0.0005412663139492788,-0.006753426485731047,-43.04535244186344,45.73580146813226,4.513488950767024,-1656528.7455913627,5088942.302035873,3602779.634242675,-146.7938481558393,-4939.414075696697,6912.222409731907,0.9951357125930653,-5.1766125482300615e-05,0.0004873747658255515,0.0985123002878226
1.69,7.707730353379989e-06,0.0005240939198161885,-0.006749881134159525,-43.021862281115,45.70708609476256,4.510994589842698,-1656529.4788881948,5088917.604966015,3602814.1957638734,-146.52488468687937,-4939.4138673969765,6912.3860695807025,0.995137375027616,-5.194897234639409e-05,0.0004887163854485193,0.09849549878418269
1.695,1.387556911822363e-05,0.0005204209314269024,-0.006722413538523046,-43.01133137757452,45.67081080771661,4.513031791687178,-1656530.2108406045,5088892.907897204,3602848.7581031276,-146.2560791862232,-4939.413656754846,6912.549632241744,0.9951390363280165,-5.2067095886449234e-05,0.0004900212703159322,0.09847870604510875
1.7,1.338203990724518e-07,0.0005141313356006258,-0.006706535087076854,-42.98796475850207,45.642318145373025,4.5099913270082705,-1656530.941449284,5088868.210829607,3602883.3212598814,-145.98739270463403,-4939.413382031785,6912.713069156807,0.9951406905873684,-5.2168936841712035e-05,0.0004913185392855725,0.0984619816060522
1.705,4.8610679290916345e-06,0.0005305418214326882,-0.006712463128563162,-42.97830046246859,45.60470174244647,4.502987979147219,-1656531.6707149222,5088843.513763384,3602917.8852335745,-145.71886250710403,-4939.413107323331,6912.876408117523,0.995142340662022,-5.23033974968449e-05,0.0004925967800054952,0.09844529666001871
1.71,2.791579993923852e-06,0.0005120348503709773,-0.006754082906170034,-42.94971607036619,45.57301291101693,4.497757969718419,-1656532.398638174,5088818.816698617,3602952.450023569,-145.45043814955585,-4939.412799257573,6913.039589826609,0.9951439918943645,-5.2430143564949104e-05,0.0004939170101722574,0.09842859693003882
1.715,-1.8493817231858686e-06,0.0005104570038557322,-0.0067101647869524045,-42.92546212118361,45.53945658331708,4.499125204416063,-1656533.1252197602,5088794.119635362,3602987.0156291905,-145.1821963692978,-4939.412503088075,6913.202658663865,0.9951456531070554,-5.255753556812155e-05,0.0004951906827482633,0.09841179363280321
1.72,-1.5055183421335516e-05,0.0005250122607820709,-0.006731731101823395,-42.91415464886409,45.503126108341874,4.492953233456193,-1656533.850460575,5088769.422573655,3603021.5820498923,-144.91412952572054,-4939.412179730082,6913.365622006706,0.9951473032324245,-5.269603107214565e-05,0.0004964592936725937,0.0983950995757968
1.725,8.768782448872875e-06,0.0005352628229035494,-0.0067085985923965065,-42.895335551159135,45.471336096581375,4.481922946917004,-1656534.5743613353,5088744.72551364,3603056.14928504,-144.64617465949615,-4939.411826042147,6913.528436960449,0.9951489583604194,-5.287098803795846e-05,0.0004977608647110427,0.09837835185116915
1.73,-6.522215506326969e-07,0.0005258497577591292,-0.006709035109182723,-42.88041353155094,45.4389849361689,4.477002252036909,-1656535.29692265,5088720.028455358,3603090.7173339184,-144.37835120443233,-4939.41148697076,6913.691114488835,0.9951506075068275,-5.298916629921571e-05,0.0004990938001624825,0.09836166161833093
1.735,1.8441609585827354e-05,0.000543385793050539,-0.006700123409653815,-42.86185497170694,45.410394894281275,4.476319139658034,-1656536.0181451542,5088695.331398818,3603125.28619587,-144.11065049244206,-4939.411129140178,6913.853666234145,0.9951522564893854,-5.3128468672785047e-05,0.0005004010002070912,0.09834497028465243
1.74,1.630808688236618e-05,0.0005120617143411425,-0.006693072207805294,-42.850469730583875,45.36955205476603,4.474291912489867,-1656536.7380294995,5088670.634344115,3603159.8558703414,-143.84308760743139,-4939.410751951411,6914.016122260568,0.9951539029801263,-5.3224568162103395e-05,0.0005017565233122398,0.0983283010681976
1.745,1.9551070902611744e-05,0.0005281469573837654,-0.0066865484537388074,-42.81652470844156,45.3460463295608,4.479381046944897,-1656537.4565763446,5088645.937291441,3603194.426356705,-143.57565037785002,-4939.410317776006,6914.1784232068785,0.9951555474958891,-5.331826664149452e-05,0.0005030335920520011,0.09831164937343394
1.75,1.0854784165822542e-05,0.0004940379905054158,-0.006708938221690093,-42.792457168167495,45.30155813196539,4.4796817692427,-1656538.1737865165,5088621.240240934,3603228.997654457,-143.30841846342142,-4939.409884567429,6914.340677652893,0.9951571901084134,-5.340784213473743e-05,0.0005043514768746927,0.0982950138751578
1.7550000000000001,-1.2824346849553173e-05,0.0005357538002779451,-0.006700464018735451,-42.77443211645798,45.27006301358075,4.458558878231865,-1656538.8896610092,5088596.543192716,3603263.5697630984,-143.04137862778103,-4939.409402643833,6914.502778922603,0.9951588379841455,-5.351069942098223e-05,0.0005055823621025226,0.0982783226613342
1.76,-4.781290600194665e-06,0.000534686623386795,-0.00668266115464494,-42.76357859076002,45.24303647676525,4.464453925173467,-1656539.6042005885,5088571.8461467745,3603298.1426818334,-142.7744530747824,-4939.408974099787,6914.664715022321,0.9951604834406582,-5.368270662187804e-05,0.0005069112150998648,0.09826165252702918
1.7650000000000001,6.826376631383507e-06,0.0005291843765097957,-0.006673028554991158,-42.73691076303808,45.205733205477344,4.456670336182582,-1656540.3174058122,5088547.149103119,3603332.7164100558,-142.50763636578662,-4939.408488130712,6914.8265738850505,0.9951621242459707,-5.383441876070435e-05,0.0005082393911230195,0.0982450266467665
1.77,1.0818774429462793e-05,0.0005160473628271877,-0.0066559263287370544,-42.71921963509123,45.167593303082754,4.461077221980693,-1656541.0292774036,5088522.452061881,3603367.290947211,-142.2410002220171,-4939.408007158822,6914.988288230948,0.9951637624148271,-5.3955888447337226e-05,0.0005095567302197539,0.09822842468993585
1.7750000000000001,1.0430675981151875e-05,0.0005356428512052917,-0.0066790580743311305,-42.70098055823912,45.13743192710865,4.4552375173496355,-1656541.739816208,5088497.755023206,3603401.8662926354,-141.97452145404932,-4939.407462892509,6915.149881487372,0.9951653961231924,-5.406417753808597e-05,0.0005108423681985413,0.09821186525114534
1.78,-1.1922425553681478e-05,0.0005264172226873001,-0.006687794985840599,-42.67020047743014,45.106169227063106,4.450641757920716,-1656542.4490229492,5088473.057987261,3603436.4424457336,-141.70817515125026,-4939.406915202726,6915.3113578419725,0.9951670352077842,-5.4178272984436226e-05,0.0005121766594982123,0.09819524823296223
1.7850000000000001,-8.722808477958284e-06,0.0005200970167442615,-0.006665856543734081,-42.66640817642165,45.07568079535431,4.441607408856401,-1656543.1568984403,5088448.360954017,3603471.0194059443,-141.4420212362682,-4939.4063822205135,6915.472726449666,0.9951686761663873,-5.4345727494911604e-05,0.0005134825094462825,0.09817860948034779
1.79,3.4877929795100404e-06,0.0005079032447786799,-0.006645393326459541,-42.645850190985584,45.02893248778984,4.433747773697848,-1656543.8634433218,5088423.663923491,3603505.597172651,-141.17593134816764,-4939.405828220789,6915.633956242478,0.9951703114698408,-5.450364215833822e-05,0.0005147734233884912,0.09816202527808751
1.795,-5.749846532321788e-06,0.0005325666290225327,-0.0066535176038615895,-42.61843361880378,44.998753804624116,4.442233166682142,-1656544.5686581782,5088398.966895808,3603540.1757450365,-140.91001119449683,-4939.405245239394,6915.794997906265,0.9951719414917076,-5.4628158988266535e-05,0.0005160369993194413,0.09814549194540106
1.8,1.4340132926064944e-05,0.0005110345756656869,-0.0066436486651273025,-42.59506566133803,44.963203510579504,4.430149968153065,-1656545.272543914,5088374.269871142,3603574.7551224562,-140.64428315034613,-4939.404621038466,6915.955970018802,0.9951735731972023,-5.4781720383142085e-05,0.0005173596681856431,0.09812893838134325
1.805,-1.2378324042471388e-05,0.0005155885566977991,-0.006653709219597878,-42.58833105468328,44.93414847076036,4.428970504310791,-1656545.9751014023,5088349.572849549,3603609.335304356,-140.37871212640044,-4939.404016008838,6916.116789958841,0.9951752022355922,-5.4880004162862685e-05,0.0005186336964543249,0.09811240932024005
1.81,8.59579347291581e-06,0.0005349496574913568,-0.006659139515081555,-42.568321057994616,44.902354477864726,4.425259753293289,-1656546.6763312472,5088324.875831088,3603643.916290084,-140.11322584460237,-4939.403368237714,6916.277501190816,0.9951768334554867,-5.5045891841355925e-05,0.0005199124996905747,0.09809585523585067
1.815,1.6708179359423343e-05,0.0005179066340732275,-0.006663221264198654,-42.54776145088884,44.86684748266038,4.417572946889115,-1656547.3762340257,5088300.178815897,3603678.498079078,-139.84788556223876,-4939.402708471907,6916.438096200844,0.9951784657075194,-5.5164352282428295e-05,0.000521244615017098,0.09807928758394002
1.82,2.724165270325818e-06,0.0005107818800853219,-0.0066349198555771685,-42.53035589715929,44.83416664727113,4.421859172968877,-1656548.0748104777,5088275.481804013,3603713.080670691,-139.5826952409604,-4939.402044897709,6916.59854923798,0.9951800987060085,-5.525845592874815e-05,0.0005225363166530802,0.09806270974126693
