t_s,gyro_x_radps,gyro_y_radps,gyro_z_radps,accel_x_mps2,accel_y_mps2,accel_z_mps2,ins_pos_ecef_x_m,ins_pos_ecef_y_m,ins_pos_ecef_z_m,ins_vel_ecef_x_mps,ins_vel_ecef_y_mps,ins_vel_ecef_z_mps,ins_quat_w,ins_quat_x,ins_quat_y,ins_quat_z
0.0,-2.0576905306464157e-05,0.0006476475819635493,-0.007319471995982152,-41.75586746657669,48.23446415805424,5.14123441804617,-1653639.850072476,5089380.142985015,3585590.067023642,-226.82286500164605,-4617.160284474699,6406.276788851849,0.9945218953682734,0.0,0.0,0.10452846326765354
0.005,1.5956101951185556e-05,0.0006705707386210539,-0.007320589236521849,-41.76890794850827,48.22314587294666,5.143250703825998,-1653640.9835153315,5089357.057174834,3585622.098842486,-226.55427720650638,-4617.163787906212,6406.45074870229,0.9945238079333638,-2.204044733573468e-07,1.604872071046182e-06,0.10451026481211083
0.01,-4.598366857697784e-06,0.000642053281264796,-0.007310234210743286,-41.768910939764744,48.22076233932038,5.135785656633826,-1653642.115615174,5089333.971347271,3585654.1315310206,-226.28565976528552,-4617.167237317658,6406.6246651599795,0.9945257204545281,-3.559658503273045e-07,3.2762833892103908e-06,0.10449206354331933
0.015,-9.172127852899035e-06,0.0006575980438354493,-0.00730428012083639,-41.7735904958402,48.227367413104375,5.13685348615263,-1653643.2463719295,5089310.885502385,3585686.1650890815,-226.01704247057393,-4617.170717314423,6406.798559213944,0.9945276299355437,-5.351823921945067e-07,4.871421906280719e-06,0.10447388798533919
0.02,1.613121372909777e-05,0.0006653246358057573,-0.007311048760939517,-41.77979737190769,48.214470222620285,5.137959218744166,-1653644.3757855329,5089287.799640078,3585718.1995166973,-225.7483988346209,-4617.174205131314,6406.972487099435,0.9945295375267221,-7.298307450357428e-07,6.5040150728850795e-06,0.10445572719601985
0.025,5.98513831979668e-06,0.0006403791458263146,-0.007333166906991339,-41.77451356354904,48.20944936963181,5.148961551372104,-1653645.5038559246,5089264.713760433,3585750.2348138364,-225.47975782844577,-4617.177652988582,6407.146368532851,0.994531446550722,-8.635846231423531e-07,8.162426732160568e-06,0.10443754954209462
0.03,1.1228318898432326e-05,0.0006653946555374448,-0.0073162762858354664,-41.78772707974321,48.21002789714056,5.136757518367097,-1653646.6305832418,5089241.627863642,3585782.27098044,-225.21116909142523,-4617.181063519214,6407.32027304272,0.9945333610142191,-1.0160523153220087e-06,9.756166577211674e-06,0.10441931686017711
0.035,8.952529026093548e-06,0.0006546249356271418,-0.007311246206765012,-41.79057030422838,48.21523871531465,5.139310119123552,-1653647.7559674394,5089218.541949726,3585814.308016479,-224.94250991293012,-4617.18450285233,6407.494142524952,0.9945352707317108,-1.1620135562708702e-06,1.1413472082577825e-05,0.10440112613849115
0.04,1.0070723430747737e-05,0.0006542785546029626,-0.0073277338446061935,-41.79435623599573,48.20810540064135,5.138517729488066,-1653648.8800083068,5089195.456018607,3585846.3459219504,-224.67383708331943,-4617.187944738273,6407.668045952263,0.9945371788014374,-1.3108221093250384e-06,1.304340644538102e-05,0.10438294788819147
0.045,-1.0884613503678618e-05,0.0006360003188388834,-0.007328558827024348,-41.80414967550794,48.19440108048352,5.135157433296026,-1653650.0027058113,5089172.370070314,3585878.384696873,-224.40516471534292,-4617.191372276116,6407.8419230950085,0.9945390908380723,-1.4567605941217476e-06,1.4672771328804709e-05,0.10436472860870291
0.05,-2.6073842902965632e-05,0.0006509937468200728,-0.007302650293816735,-41.799019209846776,48.19600850038253,5.140192613497347,-1653651.12405991,5089149.284104963,3585910.4243410183,-224.13647470145705,-4617.194768222186,6408.0157349780175,0.9945410027541578,-1.6500323552528601e-06,1.625122265918669e-05,0.10434650724355632
0.055,-4.527076369738227e-06,0.0006486048903967868,-0.007296112748783317,-41.80464259848016,48.19721860050377,5.144846076361196,-1653652.2440706377,5089126.19812263,3585942.4648543056,-223.86781646910686,-4617.198165228749,6408.189579981098,0.9945429075756693,-1.8849801214131386e-06,1.7862990680623002e-05,0.10432835026153836
0.06,-5.7814369383986825e-06,0.0006538503620681301,-0.007311859727437495,-41.8117859716616,48.18821959190719,5.139268531936761,-1653653.3627380345,5089103.112123363,3585974.506236871,-223.599142145379,-4617.201541683018,6408.3634461478605,0.9945448103584451,-2.065731571778297e-06,1.9474439022853482e-05,0.10431020949822446
0.065,2.801797783986007e-06,0.0006744691790104555,-0.007322741459717446,-41.80728965242372,48.182750292157095,5.134755899354611,-1653654.480062016,5089080.026107229,3586006.5484886416,-223.33045052894113,-4617.204911472802,6408.537262173125,0.9945467169131416,-2.250970473218378e-06,2.1098602312251954e-05,0.10429202954719854
0.07,-8.426714905139462e-06,0.0006462389134185365,-0.007327737124670805,-41.81481315938585,48.18712662114264,5.133582665437791,-1653655.5960426137,5089056.940074194,3586038.5916094356,-223.0617885867718,-4617.208302478284,6408.711055375553,0.9945486259684325,-2.420244823748853e-06,2.2776269382458834e-05,0.10427382250443773
0.075,-1.6366884629605363e-05,0.0006527452204574028,-0.007312388468161381,-41.81770556288725,48.18310189163298,5.145346917393345,-1653656.7106798072,5089033.85402419,3586070.6355992355,-222.7930888222293,-4617.211699176279,6408.884864710864,0.9945505359913023,-2.610078518301399e-06,2.4380818385258003e-05,0.10425560300615329
0.08,-3.689946910160993e-06,0.000678368883593737,-0.00730648917687476,-41.826861821367956,48.17260735031427,5.125948465437846,-1653657.823973539,5089010.76795734,3586102.680458138,-222.52440389835937,-4617.215040996746,6409.058696249874,0.9945524416775707,-2.8213493240041655e-06,2.599947508990399e-05,0.10423742163565697
0.085,5.809175766208614e-06,0.000641875573286257,-0.007300202362369191,-41.819413905146654,48.17443074021104,5.144920248985561,-1653658.935923743,5088987.68187368,3586134.726185957,-222.2556777093773,-4617.218423097093,6409.232431226671,0.994554345490085,-3.0077774083526876e-06,2.7685145547501077e-05,0.10421925489694608
0.09,1.3190083201033347e-05,0.0006617731521468668,-0.0073126170016962234,-41.828702820701004,48.16652327807148,5.136043325132999,-1653660.0465304654,5088964.59577323,3586166.7727826377,-221.9870111327765,-4617.22175652763,6409.406241159877,0.9945562473329154,-3.16107830820907e-06,2.9282554570920204e-05,0.10420110375427144
0.095,-1.0534115798085098e-05,0.0006543415837639632,-0.007300011122599835,-41.82716065403042,48.17126043067595,5.133525685167631,-1653661.1557937716,5088941.509656103,3586198.8202482266,-221.71831143059606,-4617.225094361069,6409.579994321145,0.9945581520739214,-3.3012116710293725e-06,3.093135938653934e-05,0.10418292170821314
0.1,2.6578076662029816e-06,0.0006471755785757589,-0.0073155392958866375,-41.8329565269431,48.153605676567395,5.143230642862376,-1653662.2637135803,5088918.423522211,3586230.868582635,-221.4496120638789,-4617.228462705064,6409.753769101336,0.9945600531974967,-3.4983961904657125e-06,3.255550733758125e-05,0.1041647709722087
0.105,-1.5290835579646904e-05,0.0006548761955864514,-0.007300683746526744,-41.835885943546565,48.149702570312975,5.139910844855403,-1653663.3702899527,5088895.3373716865,3586262.917785814,-221.18093684058033,-4617.231747174912,6409.9275025378565,0.9945619580309023,-3.660915459067487e-06,3.416527291982482e-05,0.10414658159089807
0.11,-1.3140669278418882e-05,0.0006616522853435796,-0.007298196794221231,-41.84037794627246,48.148117231839834,5.136768064340517,-1653664.4755229366,5088872.251204727,3586294.967857612,-220.91225673100422,-4617.2350364070435,6410.101216460773,0.9945638586609756,-3.8700660343494916e-06,3.578951225376973e-05,0.10412842911292018
0.115,-6.918615537310978e-06,0.0006674139205126037,-0.00727415817587152,-41.850385890373275,48.14441830400762,5.137209158038998,-1653665.5794124801,5088849.165021307,3586327.0187979513,-220.64356071522974,-4617.238331765863,6410.274919402206,0.9945657583091613,-4.075634150532029e-06,3.7431159468297455e-05,0.10411028278330847
0.12,-1.51796130490619e-05,0.0006462496954291956,-0.007304919560179291,-41.84706563910501,48.1352727479881,5.1357613552929955,-1653666.6819584635,5088826.07882147,3586359.07060677,-220.37483258016118,-4617.241602914577,6410.448608081406,0.994567651367457,-4.267229025543187e-06,3.9088752177296925e-05,0.10409219618819093
0.125,-1.550273125047713e-05,0.0006472756336378861,-0.007299524531584169,-41.84505509588524,48.13218954444545,5.136814340292137,-1653667.7831608937,5088802.992605282,3586391.1232839567,-220.10613947809458,-4617.244872328571,6410.622266549611,0.9945695520997935,-4.473859630745767e-06,4.069157164752672e-05,0.10407403307356115
0.13,-1.234750319668913e-05,0.0006281059536922388,-0.007309247925831932,-41.84720719804041,48.12491164217709,5.137796083300856,-1653668.8830199114,5088779.906372747,3586423.1768294363,-219.83746767025977,-4617.24814133318,6410.795925273783,0.9945714510942589,-4.681560028252073e-06,4.229685801115573e-05,0.10405588333832426
0.135,5.764133407307974e-06,0.0006588710098654263,-0.007299386492899273,-41.852962628460695,48.12250747197511,5.139545367851212,-1653669.9815355958,5088756.820123915,3586455.2312431578,-219.5688061149261,-4617.251392046762,6410.969563466681,0.9945733522860469,-4.876429408005853e-06,4.385530100588312e-05,0.10403770939148879
0.14,-1.3916868483117977e-05,0.0006393082756533109,-0.007302720943989864,-41.85512223402171,48.12560890416082,5.135790621653299,-1653671.078707938,5088733.733858871,3586487.2865250665,-219.30013075867063,-4617.254625153722,6411.143199949827,0.9945752505755573,-5.034266142099146e-06,4.5494950101672e-05,0.10401955992712707
0.145,1.3478365135148974e-06,0.0006601969193602802,-0.0073184804140380075,-41.85848342217541,48.11286455856685,5.130260200790272,-1653672.1745368664,5088710.647577602,3586519.3426751783,-219.03144057414923,-4617.257882278963,6411.316844764751,0.9945771494001937,-5.235951579681516e-06,4.708083958913553e-05,0.10400140213941458
0.15,-1.9456304738959863e-06,0.0006477261663274744,-0.007308110781846803,-41.86596167560517,48.11623365790993,5.128179030388466,-1653673.26902236,5088687.561280067,3586551.399693359,-218.76275688243487,-4617.261131824018,6411.490427634782,0.9945790519852435,-5.4051151741757165e-06,4.872263615053245e-05,0.10398320512959575
0.155,-1.5379925413315673e-05,0.0006543794112599248,-0.0073033708757796875,-41.86596536088022,48.10365308022513,5.133501460638649,-1653674.3621643428,5088664.474966267,3586583.4575794786,-218.4940362352899,-4617.264388455669,6411.664020062219,0.9945809515409755,-5.57922466462122e-06,5.03325687981975e-05,0.10396503386885687
0.16,-5.165703763466859e-06,0.000642082408693785,-0.007280944531468521,-41.86918948681399,48.09169894884163,5.125250149562341,-1653675.4539628103,5088641.388636291,3586615.5163334897,-218.22535071340354,-4617.267602006197,6411.8375844500815,0.9945828495293071,-5.788466553484621e-06,5.1955552729415216e-05,0.10394687436030951
0.165,-1.1706285887745048e-05,0.0006371562395754865,-0.007312181919731604,-41.86478012725788,48.08632086775103,5.128155391049181,-1653676.5444178556,5088618.302290234,3586647.5759551576,-217.9566673613679,-4617.270820775808,6412.01108261719,0.994584741358352,-5.969112715835756e-06,5.355061533917086e-05,0.1039287705779373
0.17,1.164075079019208e-05,0.0006391108579158863,-0.007315889322673333,-41.873610735894104,48.08487807843307,5.131910254053091,-1653677.6335295802,5088595.215928103,3586679.6364443116,-217.68802258156654,-4617.274031507772,6412.184578941853,0.9945866409706249,-6.1647460393382595e-06,5.513172934657823e-05,0.10391058909109173
0.17500000000000002,-6.561888880734313e-06,0.0006305414178102392,-0.007300655291891111,-41.872883874979436,48.078259153055605,5.132675070466333,-1653678.7212980143,5088572.129549992,3586711.69780096,-217.41935105090514,-4617.277212575885,6412.3580804444,0.9945885412110176,-6.302836008647832e-06,5.6723768382335e-05,0.10389239834765811
0.18,-2.1118435742420614e-05,0.0006529875361012578,-0.007310363756975591,-41.884579970638974,48.071815237332906,5.129604104333847,-1653679.807723145,5088549.043156003,3586743.760025076,-217.15070117012155,-4617.280383637506,6412.5315659767575,0.9945904371610711,-6.483958408360524e-06,5.828977218200002e-05,0.10387424545097902
0.185,-1.449266860694469e-05,0.0006733409422678484,-0.007294427391809248,-41.88052770089031,48.083878595831926,5.124973849650094,-1653680.8928049281,5088525.956746207,3586775.823116528,-216.8820121017434,-4617.283534610279,6412.705014854959,0.9945923352944428,-6.7071056604109206e-06,5.990780741539469e-05,0.1038560683812745
0.19,2.0969099881598725e-05,0.0006610137469853621,-0.0073012312831464655,-41.87754101250607,48.059894040718305,5.13245171927659,-1653681.9765432547,5088502.8703205045,3586807.887075343,-216.61331848677113,-4617.286746358841,6412.8785112797095,0.994594228952941,-6.919060242312633e-06,6.15781715656115e-05,0.10383793090080391
0.195,-2.1220426985388815e-05,0.0006614788183957127,-0.0073208215227918575,-41.88832402021254,48.059696659614474,5.130314978558972,-1653683.0589382933,5088479.7838789215,3586839.9519014764,-216.34469695860557,-4617.28988663456,6413.051941989799,0.994596124046371,-7.039640617468434e-06,6.322708987591609e-05,0.10381977646245664
0.2,5.308053462316934e-06,0.0006594783471724737,-0.007303620356804178,-41.88619038897365,48.05022973874078,5.129134001313006,-1653684.1399901109,5088456.697421657,3586872.0175947435,-216.07603012444932,-4617.293019229186,6413.225364813198,0.9945980238886352,-7.265248645597146e-06,6.486621394758834e-05,0.10380157328486186
0.20500000000000002,-1.2070035456067762e-05,0.0006427807739115477,-0.0073031085983791735,-41.89077130118924,48.05019794709052,5.128834539978193,-1653685.219698671,5088433.610948744,3586904.0841550454,-215.8073939368177,-4617.296145903139,6413.3987558772005,0.9945999189328482,-7.4243718160284746e-06,6.650724839304029e-05,0.10378341283864417
0.21,4.65931314627494e-06,0.0006328384589057153,-0.007300552959540729,-41.895376056185285,48.0332664468576,5.127935203038087,-1653686.2980640116,5088410.524460202,3586936.1515823104,-215.53874223782282,-4617.299270836312,6413.572150165132,0.9946018135125292,-7.622373185606404e-06,6.810225541969071e-05,0.10376525363323971
0.215,-7.23125102767044e-06,0.000646569867850472,-0.007293077854553378,-41.889295345645955,48.02004897173778,5.12973725652487,-1653687.3750861296,5088387.437956131,3586968.2198763792,-215.27010501353922,-4617.302357793766,6413.745477416078,0.9946037070972951,-7.77619734934994e-06,6.96768806735735e-05,0.10374710074494249
0.22,-7.384009765982414e-06,0.0006455834476921639,-0.007308160060299542,-41.90494322463687,48.02538408947352,5.118537261377293,-1653688.450765209,5088364.35143667,3587000.289036996,-215.00152674721963,-4617.305426616573,6413.918769384993,0.994605598407116,-7.963147691116359e-06,7.128256529610481e-05,0.10372896641057784
0.225,-7.509852694017296e-06,0.0006362194563602448,-0.007291693962000003,-41.893515475445305,48.027586070975374,5.1261182938019605,-1653689.525101175,5088341.264901788,3587032.3590640356,-214.73285965581252,-4617.308526123043,6414.092046380687,0.9946074932943464,-8.150224753759774e-06,7.288575723316704e-05,0.1037107945393196
0.23,-1.5194582657962616e-05,0.0006463383692530386,-0.007301740358143281,-41.897088202992855,48.013459628874166,5.112364298670755,-1653690.598093961,5088318.178351395,3587064.4299575803,-214.4642546925343,-4617.31163094643,6414.265371371846,0.994609383580186,-8.335183856687223e-06,7.446563311322827e-05,0.10369266357672917
0.23500000000000001,-1.1338210111071075e-05,0.0006362057279709905,-0.007301887591164661,-41.89786620435664,48.00797880823173,5.124699182090543,-1653691.6697437156,5088295.091785425,3587096.5017175227,-214.19564720100266,-4617.314756982679,6414.43860562869,0.9946112761347988,-8.541876231000889e-06,7.606867754796222e-05,0.10367450759998705
0.24,4.889882490414141e-06,0.000651502373974526,-0.007292008815762493,-41.895090397921,48.000490662166946,5.123326621493216,-1653692.740050502,5088272.005203966,3587128.5743436855,-213.92706733773292,-4617.31782689781,6414.611859565883,0.9946131683955917,-8.736353409904005e-06,7.764752637463074e-05,0.10365635122181502
0.245,-1.1766684386913583e-05,0.0006512668433143522,-0.007288817328993764,-41.89615006670611,47.998421796427444,5.1222412280795,-1653693.809014463,5088248.918607155,3587160.647836059,-213.65851709891732,-4617.320897470046,6414.785089745966,0.9946150577602056,-8.894440968003853e-06,7.92686163670528e-05,0.10363821936929515
0.25,9.400058607453398e-06,0.0006528379080228442,-0.007314705340394918,-41.893044536422714,47.99114324075577,5.1232742276822645,-1653694.8766356802,5088225.8319949815,3587192.7221945724,-213.38996979812822,-4617.323971998976,6414.95831568376,0.9946169459645584,-9.0938840462972e-06,8.088480510571278e-05,0.10362009542113106
0.255,8.454991043663166e-06,0.0006560003962455692,-0.007291412580846081,-41.905274197936926,47.98479113934747,5.115153959924797,-1653695.9429142457,5088202.745367454,3587224.797419176,-213.1214562914183,-4617.327038834084,6415.131525715105,0.994618840541296,-9.241107337894022e-06,8.251038299742774e-05,0.10360190706220983
0.26,-9.28860826997559e-06,0.0006434997668311374,-0.007276835022555287,-41.901125461561826,47.96923116139683,5.121024351592827,-1653697.0078501226,5088179.658724596,3587256.8735097027,-212.85289455658213,-4617.330104574565,6415.304684949555,0.994620728750212,-9.39149487618699e-06,8.414358029846363e-05,0.10358377658714193
0.265,-3.714237003792013e-06,0.0006349249203532313,-0.007295256378222685,-41.904294833704924,47.953897725901236,5.11804534251739,-1653698.0714433405,5088156.572066518,3587288.9504659376,-212.58439260693265,-4617.333126766344,6415.477809118812,0.9946226128538878,-9.582762568007633e-06,8.574109957822622e-05,0.10356568232933078
0.27,-4.122707258841919e-06,0.0006503509563832406,-0.007295069244630557,-41.9068692741031,47.95509026320042,5.116525261582183,-1653699.133694087,5088133.485393385,3587321.028287631,-212.31590591259828,-4617.336125742561,6415.6508681163405,0.9946245013965386,-9.757953066443358e-06,8.73187398313913e-05,0.10354754223016131
0.275,-1.560068783314075e-05,0.0006550544665551729,-0.007296133950777129,-41.90625592022609,47.95338165269272,5.120280115850247,-1653700.1946023738,5088110.398705235,3587353.1069746353,-212.04740885268387,-4617.33913473777,6415.823933580536,0.994626389553968,-9.93815252736355e-06,8.893463210310914e-05,0.10352940256131432
0.28,-4.0515983926362535e-07,0.0006423819201982865,-0.007307236720204164,-41.90794040632097,47.947329774463206,5.1191007346578505,-1653701.2541682152,5088087.312002066,3587385.186526997,-211.77892775426346,-4617.342132889164,6415.99701122213,0.9946282776521146,-1.0148110356613942e-05,9.055924913572398e-05,0.10351126021272444
0.28500000000000003,3.418268175389927e-05,0.0006390832184385413,-0.007310640173319849,-41.914347887419474,47.93541954561711,5.11874980553782,-1653702.3123916695,5088064.225283921,3587417.2669446943,-211.51045393291832,-4617.345125001683,6416.1700676633955,0.9946301682926262,-1.0317006563400822e-05,9.215628694448556e-05,0.1034930902184307
0.29,2.8675345054860404e-06,0.0006663990038465349,-0.007302935954560305,-41.913923431247106,47.92520446913499,5.118383864953663,-1653703.3692727494,5088041.138550896,3587449.3482275573,-211.2419780085043,-4617.348084703262,6416.343077441477,0.9946320594807332,-1.0399044791985152e-05,9.375407117026777e-05,0.10347491171849044
0.295,-3.869290720723901e-06,0.0006733989402856208,-0.0072965358829195056,-41.915150074702844,47.919104541044604,5.108428914619578,-1653704.424811513,5088018.05180311,3587481.4303753837,-210.973527453672,-4617.351029969737,6416.5160532385435,0.9946339483340956,-1.0566015081025741e-05,9.541167762430257e-05,0.10345675234753345
0.3,6.456097708313256e-06,0.0006507815674731323,-0.007305957500746742,-41.909964300694995,47.91665608957242,5.113547411843614,-1653705.4790080194,5087994.965040524,3587513.5133879757,-210.7050750723891,-4617.354004599908,6416.6889835174225,0.9946358351962425,-1.0751546004284223e-05,9.708494772625232e-05,0.1034386088575745
0.305,-1.7177432382737882e-05,0.0006522272066998606,-0.007293302571526715,-41.90656864163493,47.89334159536524,5.1065801490250236,-1653706.5318623625,5087971.878263085,3587545.597265261,-210.43666221811594,-4617.35697072026,6416.861930697021,0.9946377241664389,-1.090555543330969e-05,9.870464752816064e-05,0.10342044190327383
0.31,2.704261422503485e-05,0.0006549760149553683,-0.007325939741582767,-41.91374730093779,47.89229334447144,5.113499062096631,-1653707.5833747766,5087948.791470847,3587577.682007025,-210.16830344534563,-4617.359924633686,6417.034774814958,0.9946396095298055,-1.1118702509125944e-05,0.00010032183188489184,0.10340230638772409
0.315,-3.0607452025577526e-06,0.0006540926027194685,-0.007292168517387824,-41.91368349667606,47.89436497685455,5.1119601336181715,-1653708.6335453568,5087925.704663933,3587609.767613052,-209.89992859745283,-4617.362840693509,6417.207635984094,0.9946415029957968,-1.1222610824718588e-05,0.00010195728162160703,0.1033840896706453
0.32,-4.3183865458796715e-06,0.0006478576613751709,-0.007291225032455106,-41.92021494174374,47.8856875934867,5.115735604191577,-1653709.6823740622,5087902.617842396,3587641.8540834156,-209.63155359708688,-4617.365774270788,6417.38050944427,0.9946433873978833,-1.1401137328287705e-05,0.00010358275505428996,0.10336595690212134
0.325,2.8452396769516926e-06,0.0006513611869801974,-0.007281843250789011,-41.90578780485535,47.871640810280454,5.109877129073325,-1653710.7298608846,5087879.531006294,3587673.9414180913,-209.3631753038273,-4617.368666273943,6417.553360779877,0.9946452712245782,-1.1581179643703506e-05,0.00010519239962796538,0.10334782644555554
0.33,1.1137137666864293e-05,0.0006536263959978648,-0.007279581049527248,-41.90920092629157,47.864810375534965,5.10486335341292,-1653711.7760060353,5087856.444155665,3587706.029616891,-209.09488495731404,-4617.371585582528,6417.726159115654,0.9946471522939108,-1.1744311525021089e-05,0.00010681260721402656,0.10332971928129936
0.335,-8.151266843026529e-06,0.0006351476738210901,-0.0072708400662994345,-41.91413689145953,47.85087667616426,5.105718329933706,-1653712.8208097243,5087833.35729043,3587738.118679591,-208.8265906290761,-4617.3745085886085,6417.89892088828,0.9946490324463219,-1.1887409174963826e-05,0.0001084405895388105,0.10331161770548392
0.34,2.256702259760835e-06,0.00066693590687539,-0.00728173489358438,-41.9161977720555,47.84566497740096,5.112210116158598,-1653713.8642719658,5087810.2704106765,3587770.208605974,-208.5583059741827,-4617.377392779623,6418.071632399576,0.9946509100139397,-1.2073694766697821e-05,0.00011001764068871652,0.10329353783652885
0.34500000000000003,-2.1913182103816386e-05,0.0006483659467092707,-0.007302963490742667,-41.91622437129656,47.846240854074786,5.106956757428772,-1653714.9063928185,5087787.18351659,3587802.299395923,-208.29003516524725,-4617.380241809613,6418.244347209965,0.9946527900547726,-1.2242311408842888e-05,0.0001116764246502676,0.10327543083792301
0.35000000000000003,3.4564630802386725e-06,0.000666493758397017,-0.007264429093843646,-41.90782927658075,47.831073509038674,5.097995757922593,-1653715.9471723107,5087764.096608187,3587834.3910494354,-208.02176172522059,-4617.383119364921,6418.417057724903,0.9946546752477526,-1.2466241029414467e-05,0.00011328279087990573,0.10325727102432056
0.355,-6.012439873646444e-06,0.0006526020185073412,-0.007263461301106827,-41.92307711936706,47.82433472367262,5.1011271651025485,-1653716.9866105833,5087741.009685335,3587866.483566322,-207.75354728679193,-4617.386021488034,6418.589696872871,0.9946565501565025,-1.2631754213050571e-05,0.00011494078455505976,0.10323920698949625
0.36,-1.045733073739535e-05,0.0006571248570347798,-0.0072724270172213855,-41.911862331094824,47.816116037792824,5.109452578977118,-1653718.0247076668,5087717.922748104,3587898.5769463456,-207.48528614910873,-4617.3888710075835,6418.762312527952,0.9946584244884366,-1.2817227449724961e-05,0.0001165617905422948,0.10322114533005801
0.365,-1.4587753809783978e-05,0.0006359767486858208,-0.007291610651458421,-41.91775137181395,47.80615385169431,5.09843637645711,-1653719.0614636475,5087694.835796679,3587930.671189466,-207.2171061072809,-4617.391698577711,6418.93493570594,0.994660300801492,-1.3014923296564904e-05,0.0001181928958852416,0.10320306134285287
0.37,2.7045061359508023e-05,0.0006262153231192266,-0.007287145157834407,-41.920726507992484,47.78763137039094,5.103009306445456,-1653720.0968786853,5087671.74883108,3587962.766295532,-206.94890898568423,-4617.394541244653,6419.107490712252,0.9946621817379314,-1.3217439353319074e-05,0.00011977034692423181,0.103184929620084
0.375,-1.2174819964020377e-06,0.0006447665952470771,-0.007274030331689016,-41.91557624253411,47.78935492316754,5.101513518797474,-1653721.1309528162,5087648.661851416,3587994.862264231,-206.68074340753944,-4617.397324033736,6419.279988891826,0.9946640611939398,-1.3313909521657264e-05,0.00012133426446633257,0.10316680895479152
0.38,-8.11529331536578e-06,0.0006557007887459163,-0.0072858609323834525,-41.918868537743705,47.776463476699625,5.099077173142184,-1653722.1636861775,5087625.574857772,3588026.959095459,-206.4126010881431,-4617.400133825963,6419.452502331924,0.994665936928804,-1.348543973658716e-05,0.00012293702372261265,0.10314872087513105
0.385,2.2663737103862075e-07,0.0006510715999160075,-0.0072956104532873765,-41.91073686099646,47.766363908717096,5.10130294835203,-1653723.1950788542,5087602.487850129,3588059.0567891197,-206.1444696378586,-4617.402923545242,6419.624961914379,0.9946678153787561,-1.367694574812448e-05,0.00012456519346251216,0.10313060334404398
0.39,-7.530268419363784e-07,0.0006443863735558949,-0.007261767996955801,-41.91093547491375,47.753115287398735,5.096054369155581,-1653724.2251310311,5087579.400828558,3588091.1553450287,-205.87640109466363,-4617.405704723079,6419.797401724532,0.9946696960110194,-1.384651763869018e-05,0.00012618400233534814,0.10311246153214375
0.395,-8.180909273756078e-06,0.0006471610369508974,-0.007276768906646599,-41.91727750113904,47.74914804148065,5.097899791539787,-1653725.2538429196,5087556.31379309,3588123.2547629857,-205.60835432509737,-4617.408482476757,6419.969781018428,0.9946715675894444,-1.4016791629091732e-05,0.00012778593581842337,0.1030944038415351
0.4,-2.208877647138396e-05,0.0006494129593504449,-0.007274302664999636,-41.914767586776414,47.73552174233783,5.097190840276698,-1653726.2812145406,5087533.22674379,3588155.3550428185,-205.3402939914688,-4617.411237382294,6420.14215202783,0.9946734427019,-1.4206256296418996e-05,0.00012939285399749345,0.10307630881643907
0.405,2.2542215654573082e-05,0.0006577927505825888,-0.007269591092234391,-41.91739586994649,47.72569046949411,5.0959284850024185,-1653727.3072459605,5087510.139680758,3588187.456184388,-205.07227404027918,-4617.41397567208,6420.314475954901,0.9946753168459191,-1.4430884926210081e-05,0.0001310017881104851,0.10305821989415269
0.41000000000000003,-2.601676495108808e-06,0.0006363678843017013,-0.007270966249102754,-41.90614532733886,47.710498167506856,5.086621755228511,-1653728.3319373052,5087487.052604075,3588219.558187484,-204.80426384069818,-4617.416697632939,6420.48676227534,0.9946771894434816,-1.4546687658468723e-05,0.00013264305925505718,0.10304014263882288
0.41500000000000004,-5.63243409650935e-06,0.0006430185121529309,-0.007261354549628245,-41.90823384686866,47.70658057287852,5.089457550768243,-1653729.3552887773,5087463.9655137025,3588251.661051836,-204.53632498413162,-4617.419451230265,6420.658978552607,0.9946790620702723,-1.4719496928638755e-05,0.00013422457616543045,0.10302206193870746
0.42,-2.0957683154599824e-05,0.0006269957562954116,-0.007250354014765378,-41.91174593351032,47.693648977343834,5.093376003241917,-1653730.3773005717,5087440.878409606,3588283.764777265,-204.268392778747,-4617.422186958283,6420.831193130726,0.9946809318884069,-1.4901552449902688e-05,0.0001358218508983067,0.10300400510649589
0.425,1.608304912592335e-05,0.0006305901484714932,-0.007275765429004896,-41.90552898001009,47.68886742732916,5.093015823464404,-1653731.3979727502,5087417.791291947,3588315.8693636763,-204.00047863942018,-4617.424877000803,6421.003371249535,0.9946827985488582,-1.5117587543414967e-05,0.0001373753357665631,0.10298597560098775
0.43,-1.936406001594769e-05,0.0006476211380136292,-0.007275844614901692,-41.913949866231704,47.68452699735776,5.095374117654429,-1653732.4173054614,5087394.704160812,3588347.97481096,-203.7326057818799,-4617.427576895299,6421.175542236951,0.9946846714216149,-1.5242447341009746e-05,0.00013894729451883756,0.10296788285767171
0.435,-8.686582924433859e-06,0.0006423420804486656,-0.007266370778405923,-41.900982685074474,47.661394685134596,5.0904152231385735,-1653733.4352987541,5087371.617016253,3588380.081119073,-203.46471138521986,-4617.43024679163,6421.347703113851,0.9946865439758473,-1.5459838013642815e-05,0.00014055247959790211,0.10294978989477646
0.44,1.952936953449973e-06,0.0006646881975457882,-0.007273825618260203,-41.90080358047956,47.65065939008284,5.082249544633275,-1653734.4519528227,5087348.529858344,3588412.1882877694,-203.19691601106152,-4617.432916608448,6421.519775308494,0.9946884137627604,-1.564931480056419e-05,0.0001421472855875652,0.10293172045279195
0.445,-7.2069094936519545e-06,0.0006417348612484408,-0.007264609065015686,-41.91069119621062,47.64501352105454,5.089237118180334,-1653735.4672679522,5087325.44268705,3588444.2963166805,-202.92913572644616,-4617.435600991709,6421.691789295698,0.9946902851292563,-1.5818087024310697e-05,0.00014380039765786765,0.10291363243376786
0.45,-8.579767315377507e-06,0.0006384270121978223,-0.007268475897288553,-41.90187283922993,47.6361405800373,5.082179516157917,-1653736.4812441305,5087302.35550247,3588476.405205653,-202.66133564460782,-4617.4382311097015,6421.863799588287,0.9946921538012096,-1.600372842707837e-05,0.00014539407471052742,0.10289556730372162
0.455,1.936570420528917e-05,0.0006478035272387993,-0.007258588631445596,-41.90850449625257,47.62622209667653,5.075704857007518,-1653737.493881438,5087279.268304659,3588508.514954576,-202.3935873591096,-4617.440893457959,6422.035769650072,0.9946940231381977,-1.6191934249803057e-05,0.00014697917267892142,0.10287749252431672
0.46,5.136049855214685e-06,0.0006744539161315424,-0.007253208406002639,-41.90252475526203,47.607020493381924,5.088383973268458,-1653738.5051799673,5087256.181093547,3588540.6255632094,-202.12582434233315,-4617.443551560378,6422.207683772066,0.9946958895993624,-1.6313055031250195e-05,0.00014859477530746931,0.102859442287085
0.465,2.3202726000156953e-06,0.000628045528920346,-0.007269545872672924,-41.90203815247569,47.59875258487626,5.0802289940155925,-1653739.5151398894,5087233.093869331,3588572.7370313406,-201.85814450857094,-4617.446134596225,6422.379568545497,0.9946977543365042,-1.647641236567279e-05,0.000150272991551076,0.1028414053991457
0.47000000000000003,-4.7463236323880325e-06,0.0006139017626761631,-0.007273466896215766,-41.89803607606261,47.58910131191499,5.087900382865471,-1653740.5237614424,5087210.006632148,3588604.849358775,-201.59047665934665,-4617.448738371671,6422.551405422317,0.9946996229609442,-1.6634846191197553e-05,0.00015183507732923163,0.10282332785290822
0.47500000000000003,7.002097541511455e-06,0.0006274915549099227,-0.007266310184568312,-41.900041332797244,47.59068048224199,5.077040567194592,-1653741.5310447824,5087186.919382041,3588636.962545379,-201.32285933520347,-4617.451304627181,6422.723236008,0.9947014922672773,-1.6807218578290033e-05,0.000153360174369054,0.10280524052511211
0.48,-8.804220208160763e-06,0.0006189861686091481,-0.007250714124049481,-41.895606973651915,47.57044571987392,5.088224283285146,-1653742.5369899843,5087163.83211898,3588669.076591091,-201.0552214469937,-4617.453919749563,6422.89504895502,0.9947033593985589,-1.695386554037294e-05,0.00015492208562325555,0.10278717095501373
0.485,-7.023724444174678e-06,0.0006396404106863885,-0.007244881961109786,-41.89535429061598,47.565784280203786,5.081592076889991,-1653743.5415971873,5087140.74484303,3588701.1914957706,-200.78765976191139,-4617.456460182569,6423.066822850816,0.9947052221948184,-1.7137627338316313e-05,0.00015645878492957525,0.10276914014093608
0.49,-1.1829830767776117e-05,0.0006341041905158216,-0.007265357452074941,-41.88976148984603,47.55472517331676,5.083522974132923,-1653744.5448665975,5087117.657554322,3588733.3072592467,-200.52010437256143,-4617.459023168202,6423.2385674950365,0.9947070831556184,-1.732226572501644e-05,0.00015804730409019386,0.10275112379448913
0.495,-1.887548930856159e-05,0.0006551493655384926,-0.007224242782814126,-41.888452219599436,47.53536924187739,5.077999658111581,-1653745.546798363,5087094.570252836,3588765.423881379,-200.25260180507294,-4617.461571283219,6423.410285399584,0.9947089490483356,-1.7517441734111226e-05,0.00015962082043610436,0.10273305649832751
0.5,1.0898213159340408e-05,0.000642522023654858,-0.007273403371378691,-41.89649329907356,47.520283355970264,5.072435829884528,-1653746.5473927136,5087071.482938642,3588797.5413618884,-199.98513840752662,-4617.464106147195,6423.581918442465,0.99471080404386,-1.7735527367420118e-05,0.00016124486353452462,0.10271509141291112
0.505,-2.3173120335444617e-07,0.0006285726545570668,-0.007245325605615158,-41.88697153471636,47.511677813434176,5.07255854236532,-1653747.5466497208,5087048.395611831,3588829.659700374,-199.7176644681619,-4617.466618399486,6423.753475889127,0.9947126713403359,-1.787634970684845e-05,0.00016284514853777472,0.10269700403062763
0.51,-9.405050568671606e-08,0.0006396560980273497,-0.007253586554343224,-41.888760221236296,47.50796222730391,5.073460048567198,-1653748.5445695175,5087025.308272443,3588861.7788966014,-199.45025418306847,-4617.469136603218,6423.9250148559995,0.9947145311031008,-1.804125695520476e-05,0.0001644078881764516,0.10267898644268797
0.515,-1.4933440336533396e-05,0.0006563136961383474,-0.007240357755278533,-41.87779018488542,47.48282591998752,5.070787389257491,-1653749.5411522754,5087002.220920487,3588893.898950508,-199.1828489861768,-4617.471645600677,6424.096547748545,0.9947163926526508,-1.8208670302375877e-05,0.0001659982248860897,0.10266094827699276
0.52,-9.469299021823041e-07,0.0006366192223383843,-0.007250777157817427,-41.87771538473767,47.4779006803073,5.070513131197142,-1653750.5363982487,5086979.133556032,3588926.019861848,-198.91554035973238,-4617.47413672235,6424.267988456555,0.9947182504702908,-1.84172558264781e-05,0.00016762617754317773,0.10264294297998866
0.525,4.011319720945433e-06,0.0006489018421361342,-0.007251406420840412,-41.876906209208705,47.46772731197239,5.066326657490641,-1653751.5303077141,5086956.046179129,3588958.1416303604,-198.64824585371383,-4617.4766243231215,6424.439416470459,0.9947201106415428,-1.8586010371051272e-05,0.00016920874257526436,0.10262491173315853
0.53,1.3241790540360266e-05,0.0006297282882792569,-0.007281527609883847,-41.88190915356009,47.45698582608224,5.064541107391563,-1653752.5228807621,5086932.958789785,3588990.2642559023,-198.3809732770017,-4617.479113338541,6424.61080018156,0.9947219706398263,-1.8745586256059097e-05,0.0001708231240442043,0.10260687888481976
0.535,2.6537035158075785e-05,0.0006591155388685088,-0.00725244775068725,-41.884037868068525,47.437159401883,5.067266731368502,-1653753.514117447,5086909.871388049,3589022.38773825,-198.113700715913,-4617.481581036053,6424.782139095484,0.994723838042522,-1.8877302271719403e-05,0.00017239219093104937,0.1025887710937927
0.54,-1.0938509598681439e-06,0.0006169077538861551,-0.007272955632961725,-41.87364294080668,47.43731054359595,5.066021469853614,-1653754.5040178571,5086886.783974109,3589054.5120771267,-197.84646334196574,-4617.483994794949,6424.953411415324,0.9947256976441096,-1.8983480011174215e-05,0.0001740377494866724,0.10257073557759464
0.545,-4.7911107824603295e-06,0.0006557363328254046,-0.0072504442076987965,-41.874701200233645,47.42777708532582,5.06455435485433,-1653755.4925822052,5086863.696548019,3589086.6372723994,-197.57927585607428,-4617.486441662338,6425.124697680622,0.9947275621910564,-1.9147556339477028e-05,0.0001755712587895145,0.10255264904205218
0.55,-1.1166811715182355e-05,0.0006185414371684788,-0.007252097820328689,-41.863895033597686,47.40912374145534,5.066049917416042,-1653756.4798106556,5086840.609109722,3589118.7633240144,-197.3121042575502,-4617.488876879602,6425.295948273107,0.9947294206189079,-1.9330772130220705e-05,0.00017720038084634586,0.10253461845405296
0.555,2.6781213025414533e-06,0.0006278120473999947,-0.007240177629119762,-41.86345745219301,47.393041211611795,5.063526545411944,-1653757.465703471,5086817.5216593,3589150.8902317462,-197.04502203772026,-4617.491292251472,6425.467144486285,0.9947312791573848,-1.95203094792635e-05,0.00017873537129691177,0.10251658372447642
0.56,-2.3486597649456517e-05,0.0006237006552056331,-0.007239648874012918,-41.86864245910719,47.39333356202701,5.052210462832459,-1653758.4502609586,5086794.434196848,3589183.0179952993,-196.7779729173879,-4617.493688211967,6425.638276730057,0.9947331343084999,-1.967778750385459e-05,0.00018029696502312463,0.10249857859783734
0.5650000000000001,9.227056625351658e-07,0.0006467976376995589,-0.007261291492738353,-41.86592879727851,47.3721463351539,5.0590492952311,-1653759.4334831177,5086771.346722314,3589215.1466144463,-196.5108907036822,-4617.496125290236,6425.809382120746,0.9947349889963765,-1.9899279036204465e-05,0.00018184162975447873,0.10248057476428987
0.5700000000000001,7.147948705484947e-06,0.0006436302765252597,-0.007221632837668436,-41.86130197209796,47.34997692545916,5.057672546793303,-1653760.415370027,5086748.259235754,3589247.276088979,-196.24387303973188,-4617.498499047524,6425.980430909021,0.9947368488904968,-2.006599591074243e-05,0.00018344998548909216,0.10246251706289188
0.5750000000000001,6.454146682696713e-06,0.0006289926974127934,-0.007242815971569457,-41.85327226048354,47.349459120328,5.058598615465441,-1653761.3959220091,5086725.171737397,3589279.4064185508,-195.97691976609048,-4617.500843527478,6426.151397798614,0.99473869829896,-2.0216402054083075e-05,0.00018505206106057538,0.10244455794976344
0.58,-8.471816373703242e-07,0.0006268200098389121,-0.007245886647147093,-41.85244557516305,47.33081187968996,5.054641929305094,-1653762.3751393328,5086702.084227273,3589311.537602995,-195.71000974650883,-4617.503206151805,6426.322379923117,0.9947405528116965,-2.036479451922143e-05,0.0001866175563938946,0.10242654612473907
0.585,-2.0316510521027755e-05,0.0006409126105297123,-0.007236737983077493,-41.8418404672362,47.32638840907698,5.0486633733520545,-1653763.3530222005,5086678.996705383,3589343.6696421546,-195.44313736887148,-4617.505549898882,6426.493283989408,0.9947424077826414,-2.0530789376445192e-05,0.00018817577873350819,0.10240852663306917
0.59,1.6675264934948002e-06,0.0006526808861598386,-0.0072358445500721675,-41.85759682260719,47.31394356711448,5.0524013218765464,-1653764.329570839,5086655.90917167,3589375.8025357905,-195.17631801845664,-4617.50793540265,6426.664170311274,0.994744260075199,-2.0748805346905668e-05,0.0001897640631861941,0.10239052986742575
0.595,1.856831602756198e-05,0.0006357614527464713,-0.007231332700867299,-41.83923888917181,47.297573458288774,5.045538368007533,-1653765.3047852856,5086632.821626201,3589407.9362837444,-194.9094606304775,-4617.510251808973,6426.835011258974,0.9947461118064594,-2.0915162050030565e-05,0.00019138724107720218,0.1023725352788082
0.6,-9.297873340180951e-06,0.0006486094772984434,-0.00723423811612384,-41.83623716881563,47.283141591512766,5.043985734800657,-1653766.278665716,5086609.734069067,3589440.0708857477,-194.64271153859985,-4617.512602018417,6427.005790045949,0.9947479620640818,-2.103515638756404e-05,0.0001929726682312188,0.10235455186960535
0.605,-1.6821160393513582e-05,0.0006242372441856353,-0.007208999188537234,-41.83465027848681,47.265703500203784,5.046033651329041,-1653767.2512125082,5086586.646500217,3589472.206341514,-194.37600524758565,-4617.514937955227,6427.176516429425,0.9947498127296907,-2.1227739342016986e-05,0.00019458291595614004,0.10233656121405106
0.61,-9.303443120969336e-06,0.000635180786654755,-0.007210396764769929,-41.831789124480764,47.26177004752206,5.054108453364623,-1653768.2224258848,5086563.558919783,3589504.3426507725,-194.10934548505895,-4617.51723565648,6427.347187078017,0.9947516566228353,-2.1432784056486725e-05,0.00019613062950243486,0.10231863329588034
0.615,3.056298876760499e-05,0.0006413390363656967,-0.007251418812503312,-41.82671185989137,47.23706754533855,5.046582386084871,-1653769.1923060515,5086540.471327932,3589536.479813427,-193.8427211591893,-4617.519504896924,6427.517874678455,0.9947535005428769,-2.1621933115616644e-05,0.0001977074811835386,0.10230070186433962
0.62,-4.464037208246386e-06,0.0006136333343857262,-0.007214897376882313,-41.83277885668966,47.23015553646348,5.041896724472835,-1653770.1608532541,5086517.383724759,3589568.617829247,-193.57615986272558,-4617.521764166525,6427.688453194556,0.9947553546258786,-2.171353424510553e-05,0.00019930984134313288,0.10228266836200564
0.625,-2.2659387229848753e-05,0.0006438242631585273,-0.0072133404729948685,-41.824786462607804,47.22197433385536,5.036103396130231,-1653771.1280676115,5086494.2961102985,3589600.7566978633,-193.30958309110832,-4617.524020078174,6427.8589934485535,0.994757199054279,-2.1885140941083987e-05,0.0002008343457868894,0.10226472566966498
0.63,6.583750051205593e-06,0.0006507886744051846,-0.007218012739448158,-41.821435292630895,47.20155390359673,5.062081027214164,-1653772.0939492057,5086471.20848449,3589632.8964190944,-193.04305465402032,-4617.526303010263,6428.029498960034,0.9947590427424571,-2.210971540432358e-05,0.00020242928000316866,0.10224678682314461
0.635,6.26196703273445e-06,0.0006427846900677901,-0.007223235599189974,-41.817983708465874,47.188135333232374,5.051469737623698,-1653773.0584983842,5086448.120847608,3589665.0369928544,-192.7766167106648,-4617.528450171879,6428.200004992675,0.9947608872967239,-2.226334775829397e-05,0.00020404900871451054,0.10222883630845161
0.64,5.552118195707457e-06,0.0006502356588302592,-0.0072074604018649725,-41.815947879580015,47.17881165341862,5.040840654087535,-1653774.0217154513,5086425.033199927,3589697.178418961,-192.5102100915936,-4617.5306219795475,6428.370437757045,0.9947627328631199,-2.2415737417286168e-05,0.00020564874970295502,0.10221087277204721
0.645,-6.242889289441097e-06,0.0006543247810523908,-0.007212101084766973,-41.80558114991137,47.1682783917663,5.0305608175968475,-1653774.983600529,5086401.94554131,3589729.320697087,-192.24382100451803,-4617.532824977447,6428.540812629319,0.9947645740683758,-2.2571788211384147e-05,0.00020726683998744896,0.10219294843351148
0.65,-4.546703150804179e-06,0.0006296379233409356,-0.007213757715672361,-41.80228938844853,47.144721238004415,5.044140131920249,-1653775.944153805,5086378.857871567,3589761.46382695,-191.97748939977834,-4617.535072118516,6428.711132674441,0.9947664161306344,-2.275821924047074e-05,0.00020889208581050155,0.10217501252641713
0.655,-6.452051795233446e-06,0.0006334470026453834,-0.0072108480360274915,-41.80395299094234,47.135347204134476,5.032052197684614,-1653776.903375623,5086355.770190824,3589793.6078082966,-191.71123779545854,-4617.537225015408,6428.881405794579,0.994768258303021,-2.2934126904706996e-05,0.00021045637059800897,0.1021570724664525
0.66,-1.5723251967132602e-05,0.0006484901071046366,-0.007223021426729104,-41.80652578761491,47.122384964642116,5.0345591685212945,-1653777.8612661809,5086332.682499244,3589825.752640845,-191.44498534501855,-4617.539407139614,6429.051613596237,0.9947700994042961,-2.311574429232178e-05,0.0002120296417492854,0.10213913960994764
0.665,-9.970066910170817e-07,0.0006551411930077286,-0.0072053961664105114,-41.79949803054251,47.1139461277418,5.031576810074045,-1653778.8178255272,5086309.5947968485,3589857.8983243327,-191.17875319673502,-4617.541550877109,6429.221781561319,0.9947719432791312,-2.3324266131447767e-05,0.00021363795582274853,0.10212117644966374
0.67,1.8148346099036295e-05,0.0006120470920767438,-0.007223002932407288,-41.797555092094164,47.08900912649902,5.029317713330717,-1653779.773053833,5086286.507083702,3589890.044858589,-190.9125691287747,-4617.543707956184,6429.391920789562,0.9947737823252697,-2.349785345202836e-05,0.0002152665712917519,0.10210325708042371
0.675,-1.0457731597217614e-06,0.0006512104653993648,-0.007186074983004207,-41.78639907903101,47.073609837004575,5.025643662971141,-1653780.7269513588,5086263.419359864,3589922.1922432957,-190.64644117703767,-4617.5458272614,6429.561962056821,0.9947756255639155,-2.3612836882558282e-05,0.0002167929004586476,0.10208529388307011
0.68,-1.591866785660177e-05,0.0006285114168946661,-0.00720328961185681,-41.77730565702113,47.06464848980477,5.034136707350693,-1653781.6795184405,5086240.331625408,3589954.3404780705,-190.38039151612753,-4617.547955167267,6429.731947863814,0.9947774590305013,-2.378552990728468e-05,0.00021841173006432283,0.10206742249799497
0.685,5.06856213391073e-06,0.000643479609029906,-0.007201003281940325,-41.78042740480923,47.043536194145595,5.021824739822459,-1653782.6307554564,5086217.243880385,3589986.489562782,-190.1144148309855,-4617.550054172539,6429.90193660045,0.9947792965768494,-2.3989428291487864e-05,0.00021997031222558303,0.10204950827729631
0.6900000000000001,-2.0766887763993256e-05,0.000633484424200339,-0.007187150011837173,-41.77446315561683,47.029400507688216,5.024983287691685,-1653783.5806626228,5086194.156124866,3590018.6394971497,-189.8484517115737,-4617.55215340144,6430.0718104970265,0.9947811332079108,-2.414494999743803e-05,0.0002215714739124517,0.10203159969680085
0.6950000000000001,5.50560310014278e-06,0.0006488752944989084,-0.0072146715715675925,-41.770401623659154,47.014817037619096,5.022783668407374,-1653784.5292401272,5086171.068358916,3590050.790280798,-189.5825500808201,-4617.554226485568,6430.241648783676,0.9947829659849557,-2.436216600536824e-05,0.00022314118872936864,0.10201372555038504
0.7000000000000001,-5.009313250427813e-06,0.0006227466973262052,-0.007195733026772651,-41.7578879547145,47.00367002850258,5.01311132963371,-1653785.4764882408,5086147.980582626,3590082.9419135023,-189.31669532513402,-4617.5562896259735,6430.411433023367,0.9947848054490067,-2.4517983992413977e-05,0.00022475587862287298,0.10199578291010536
0.705,3.917136896777735e-06,0.0006370673363759134,-0.0072028475072854784,-41.75627655009188,46.99348611308265,5.023237322464735,-1653786.422407253,5086124.892795907,3590115.0943949935,-189.0509095327724,-4617.558397495269,6430.581163417405,0.994786639772674,-2.4693279010794234e-05,0.00022630290758227334,0.10197788734342468
0.71,1.1986188174771231e-05,0.0006226119050096689,-0.007197630347060926,-41.75309953795605,46.979321786141504,5.02245078026728,-1653787.3669974455,5086101.804998784,3590147.2477251273,-188.7851674844572,-4617.560451879479,6430.750890036716,0.9947884755778748,-2.4850029234107923e-05,0.0002278878267309205,0.10195997404404704
0.715,2.616188617217303e-06,0.0006312935554324536,-0.007205634511662433,-41.74980342491509,46.94975603163258,5.0089949447804045,-1653788.3102590377,5086078.71719143,3590179.401903771,-188.51946941254667,-4617.5624898735,6430.920567543687,0.9947903097371582,-2.4983024290420483e-05,0.00022943885268859602,0.10194207368260744
0.72,-7.812976641987395e-06,0.0006269235052736574,-0.007204769770780923,-41.742119647814654,46.944484081234776,5.011284370418098,-1653789.2521922798,5086055.629373889,3590211.556930435,-188.2538274705833,-4617.564526375032,6431.090098083788,0.9947921456058768,-2.5141539455258952e-05,0.00023100908113273387,0.10192415338654197
0.725,-1.8891248447893476e-05,0.0006363934009677063,-0.007207318897998537,-41.733166102007324,46.92766721517777,5.015388548627864,-1653790.1927974424,5086032.541546163,3590243.71280475,-187.98823753533566,-4617.566563990628,6431.259627984255,0.9947939809308793,-2.5324877707528677e-05,0.00023256578386716395,0.10190623521404459
0.73,-1.2402901950380693e-05,0.0006438654339300007,-0.007186639462950373,-41.73478013056406,46.915220831747476,5.006756650679745,-1653791.1320748576,5086009.453708324,3590275.8695266116,-187.72272851707515,-4617.568571741575,6431.429116511285,0.9947958165737675,-2.5538181532436762e-05,0.00023414321548980452,0.10188831067442038
0.735,1.232788851746786e-06,0.0006584611981934855,-0.0071905859513847715,-41.73776689268128,46.89625539975947,5.007146955481985,-1653792.070024751,5085986.365860424,3590308.027095745,-187.45722881060092,-4617.570588133996,6431.598536922639,0.9947976466206209,-2.573724007630009e-05,0.0002357408839408224,0.10187043752681436
0.74,-7.0125831040934516e-06,0.0006454261015681486,-0.007186037823080874,-41.71735379619756,46.88176409763379,5.007472478841684,-1653793.006647212,5085963.278002555,3590340.185511804,-187.19175562658177,-4617.572559821613,6431.767886820552,0.9947994773408929,-2.5906106247082186e-05,0.00023737832432546574,0.10185255452216785
0.745,-6.763046603455634e-06,0.0006183636639840341,-0.007177873812702881,-41.71485221012193,46.86908712353561,4.997360360502287,-1653793.941942615,5085940.190134792,3590372.344774531,-186.92640564474883,-4617.5745453440195,6431.937203829958,0.9948013065863579,-2.609215679491786e-05,0.00023898124712861305,0.10183468280128405
0.75,-1.580734869757949e-05,0.0006363079738078837,-0.007208930527489876,-41.71364901990752,46.857437050713656,5.014332968525865,-1653794.875911334,5085917.102257045,3590404.5048836684,-186.6610819157562,-4617.576553219657,6432.106451084296,0.9948031334463728,-2.6270692121704534e-05,0.00024051692954467243,0.10181683135285335
0.755,2.715354676822311e-06,0.0006432494755895159,-0.007178695265763604,-41.702575004111466,46.828285589136485,4.998436222832043,-1653795.8085535676,5085894.014369471,3590436.6658390644,-186.3958114962792,-4617.578476395933,6432.2757073762305,0.9948049678760693,-2.647630694616708e-05,0.00024209493532629644,0.10179890263721052
0.76,-8.695477896763753e-06,0.0006462070189752847,-0.007180516259161047,-41.699628306331356,46.82376961743833,5.011101854020815,-1653796.7398696665,5085870.926472219,3590468.827640378,-186.13062812940535,-4617.580424617261,6432.44481805837,0.9948067942836889,-2.663760386231089e-05,0.00024369492060862747,0.10178104907218215
0.765,1.0098679976367775e-06,0.0006307432100891209,-0.0071881967811119945,-41.69974847055031,46.80273088949169,4.999905691347188,-1653797.6698599556,5085847.838565344,3590500.9902873137,-185.86548745754843,-4617.582325006658,6432.613956171294,0.9948086208290247,-2.6828033368323656e-05,0.00024529935763490805,0.10176319095201226
0.77,8.763972186982099e-06,0.0006449963748653178,-0.007170571951873618,-41.70198571959058,46.78620342594142,4.9948984471244104,-1653798.5985246117,5085824.750648963,3590533.1537796673,-185.60037500562754,-4617.584227465103,6432.782985343161,0.9948104490150262,-2.6990396054932296e-05,0.0002468678043577417,0.10174531369221664
0.775,-1.0409187498938138e-07,0.0006333702253929626,-0.007166102874411075,-41.694427706675675,46.77322061883864,4.990717075356481,-1653799.5258637518,5085801.66272311,3590565.318116979,-185.3352810638365,-4617.5861135964,6432.951939422414,0.9948122723866387,-2.7137088677395486e-05,0.0002484736725422062,0.10172748022704858
0.78,-1.1861171829601165e-06,0.0006303079316127096,-0.007175490979678569,-41.67905440224836,46.76077534540872,5.002065989479133,-1653800.451877565,5085778.574787806,3590597.483298936,-185.0702441679306,-4617.588008342464,6433.120843305999,0.9948140943062704,-2.730287691513473e-05,0.0002500483710444647,0.10170965784998046
0.785,1.5068254079215562e-05,0.0006498149872525734,-0.007184206413187303,-41.667790228785535,46.73900026763435,4.990205933274021,-1653801.376566471,5085755.486843116,3590629.6493254174,-184.80531828401925,-4617.589867782798,6433.289749129725,0.9948159182927021,-2.7470583385658232e-05,0.00025161517766134165,0.1016918120923082
0.79,-5.0811687378059435e-06,0.0006564020986360127,-0.007187745331804386,-41.67132697283418,46.7248205967754,4.983057869940958,-1653802.2999309471,5085732.398889062,3590661.816196167,-184.5404720895866,-4617.591753582516,6433.458550679333,0.9948177441606327,-2.7602829331014898e-05,0.00025323463076280047,0.10167394461441717
0.795,1.9338087272490677e-07,0.0006418659557780887,-0.007148438585764083,-41.66934278528925,46.71868041949343,4.995378299311672,-1653803.2219712061,5085709.310925593,3590693.9839107427,-184.27563158024734,-4617.593634161174,6433.6272795994,0.9948195705988226,-2.778686436019876e-05,0.00025486534429761376,0.10165606831429508
0.8,6.4865342388576085e-06,0.0006204229398305235,-0.0071598644971330345,-41.664584042621605,46.69613652856281,4.987357075276589,-1653804.142687365,5085686.222952851,3590726.1524690106,-184.01083193911205,-4617.595462563283,6433.796027585511,0.994821386735124,-2.795406205478279e-05,0.00025646124885689124,0.1016382897367092
0.805,-4.784957873673115e-07,0.0006449690177456401,-0.007181407259724971,-41.654785428993264,46.67125412109581,4.978373549399243,-1653805.0620796676,5085663.134970977,3590758.321870763,-183.7460891208919,-4617.597287030503,6433.964673436448,0.9948232054681806,-2.8100167078630423e-05,0.0002580054216711964,0.10162048270696865
0.81,-7.254084367308438e-07,0.0006307096366980834,-0.0071575226492673555,-41.65755565775685,46.65377229286333,4.987518037796894,-1653805.980148462,5085640.046979968,3590790.4921154696,-183.4814287002827,-4617.599116359424,6434.133209183868,0.9948250293356904,-2.8269844383143944e-05,0.0002596088709340495,0.10160262206898446
0.8150000000000001,4.686773069384981e-06,0.0006383703291426802,-0.0071551623053521096,-41.64041280359787,46.63998230342266,4.98370681102392,-1653806.8968940445,5085616.9589800015,3590822.663202755,-183.21680424799752,-4617.600870266819,6434.301705079304,0.9948268468234638,-2.8436498287780236e-05,0.0002611767951105361,0.10158482080178993
0.8200000000000001,6.5684524894010724e-06,0.0006411852477793124,-0.007154614083984165,-41.63767637293527,46.62650173529075,4.983236983429971,-1653807.8123167595,5085593.870971203,3590854.8351324094,-182.95228168624254,-4617.6026491379735,6434.470156501003,0.9948286633862518,-2.859163570862374e-05,0.0002627651465155549,0.10156702536807953
0.8250000000000001,-6.69383397775978e-06,0.0006294843220941156,-0.007144726303849104,-41.63941414987346,46.608671028523034,4.969574810330557,-1653808.726416964,5085570.782953553,3590887.0079042055,-182.68780017685566,-4617.604410923598,6434.63856200127,0.9948304794872787,-2.8742807645841326e-05,0.0002643609765708294,0.10154923126364111
0.8300000000000001,9.435373210658558e-06,0.0006145818964124317,-0.007141716876384194,-41.62439276720483,46.59297070417916,4.970278450335,-1653809.639194791,5085547.694927054,3590919.1815177687,-182.42333059506979,-4617.606188455898,6434.806863288189,0.9948322927644996,-2.8923986805935276e-05,0.0002659243392202222,0.1015314617277714
0.835,-1.1858302204958527e-05,0.0006346736268746274,-0.007136478091452995,-41.61927779725026,46.57596939306887,4.971018984237438,-1653810.550650524,5085524.606891672,3590951.3559727347,-182.15896262091653,-4617.607964407907,6434.975123166771,0.9948341049692465,-2.9061266652962947e-05,0.000267454732520963,0.10151369963432044
0.84,-1.5339921157626153e-05,0.0006427138441978627,-0.0071460016925426195,-41.61286963204316,46.55103565521334,4.974770201594393,-1653811.4607845661,5085501.518847473,3590983.531268863,-181.89465424593752,-4617.609715308112,6435.143328170381,0.9948359155101677,-2.9256601138851797e-05,0.00026902969196377166,0.10149595055036824
0.845,4.710615766420851e-06,0.0006039634359263481,-0.00713873461579637,-41.60733008930288,46.54388072742337,4.962138913881166,-1653812.3695972755,5085478.430794651,3591015.7074058224,-181.63042945246258,-4617.611413758331,6435.311455587044,0.9948377281423187,-2.9462641243361284e-05,0.0002706237639404152,0.10147817774950955
0.85,-2.102642175170322e-05,0.0006544549704123137,-0.007127879369416616,-41.60570954686415,46.52329819720123,4.969711394362753,-1653813.277088927,5085455.342733208,3591047.884383289,-181.36623120919626,-4617.61316330031,6435.479531066163,0.9948395386389324,-2.9608978043253663e-05,0.0002721265471749408,0.10146042297924354
0.855,-9.319330695403925e-06,0.0006450959161447039,-0.007140145164684742,-41.59613433880046,46.50747539837469,4.96030129449446,-1653814.1832597353,5085432.254663186,3591080.062201,-181.10209211776143,-4617.614845483594,6435.647553296746,0.9948413460269944,-2.9832125236098854e-05,0.0002737483803361742,0.10144269518830147
0.86,-1.9711911656369544e-05,0.0006273867289057194,-0.0071635091361065386,-41.587250071407276,46.49359569906958,4.958611251126932,-1653815.0881100092,5085409.166584686,3591112.2408586354,-180.8380174391429,-4617.616554448384,6435.81550075809,0.9948431562139484,-3.002379054894134e-05,0.00027534990455663406,0.10142493685120917
0.865,1.9664947384179912e-05,0.000635221936681571,-0.007142706286739265,-41.58508081501034,46.47251790337622,4.964350081374497,-1653815.991640079,5085386.078497643,3591144.4203558927,-180.57401048012784,-4617.618262809317,6435.983402360141,0.9948449720159859,-3.0236829022388464e-05,0.00027690474710820193,0.10140712038120203
0.87,9.626483625340124e-06,0.0006161464150863742,-0.007132867961240006,-41.5782165675163,46.44823189214414,4.953556927770612,-1653816.8938502646,5085362.990402209,3591176.600692509,-180.31006367534175,-4617.6199110482785,6436.151244051956,0.9948467822210572,-3.0353904774144687e-05,0.0002784890609204206,0.10138935558968654
0.875,1.8351237771381707e-05,0.0006299048851411,-0.007151688725690614,-41.56891415963825,46.4387983515924,4.96693828510832,-1653817.7947408804,5085339.902298515,3591208.781868045,-180.0461826414972,-4617.621566531053,6436.31897049883,0.9948485896256734,-3.0491105362817954e-05,0.0002800233878532351,0.10137161524314052
0.88,1.1421679168855693e-06,0.0006317777901312735,-0.007124010265561722,-41.572928965091855,46.41686774924261,4.951764172238481,-1653818.694312293,5085316.814186665,3591240.9638822507,-179.78238249610618,-4617.623173050035,6436.486711608,0.994850401471452,-3.0610106389768685e-05,0.0002815941433537988,0.10135382804734448
0.885,1.297754221047692e-05,0.0006169987906483076,-0.007130150522742161,-41.548855261185096,46.40290804378007,4.9605744816021184,-1653819.592564723,5085293.726066764,3591273.146734844,-179.51858947269957,-4617.6247871633705,6436.654325704992,0.9948522059820329,-3.0772363612022615e-05,0.0002831651985200319,0.10133610967081144
0.89,4.22475209096314e-06,0.0006309636818197359,-0.007116263546263588,-41.54465585270046,46.38979625406758,4.955466234886845,-1653820.4894985612,5085270.637938822,3591305.330425497,-179.25494584746295,-4617.6263902392275,6436.821935617319,0.9948540117412998,-3.0901444934858245e-05,0.0002847024941996783,0.10131837598299773
0.895,3.7749041371857972e-06,0.0006140030701882174,-0.007128692318006553,-41.55253886476636,46.36211132946864,4.949415778139631,-1653821.3851142838,5085247.54980285,3591337.5149540594,-178.9913431358678,-4617.627998301361,6436.989489284471,0.9948558136545206,-3.1055822984824705e-05,0.0002862723063849755,0.10130067680674333
0.9,2.5894149317305502e-05,0.0006068014084729981,-0.007133806654098491,-41.53171002247502,46.34716433076049,4.946186967827458,-1653822.2794120223,5085224.461658962,3591369.7003200697,-178.72775225582177,-4617.629556838498,6437.156914814658,0.9948576184096126,-3.120703345094021e-05,0.0002877998201813835,0.10128294668767428
0.905,1.732572198526335e-05,0.0006050973882405265,-0.00712639865254905,-41.52385652095025,46.327291130958734,4.952407721806199,-1653823.1723921094,5085201.373507213,3591401.8865230964,-178.4642825456578,-4617.63114286683,6437.324295757273,0.9948594241480729,-3.130141032406824e-05,0.0002893150226724088,0.10126520380073373
0.91,-8.199141513210979e-06,0.0006213830220337653,-0.007118528425740931,-41.52015276789624,46.307391140670006,4.9359599559458,-1653824.0640550577,5085178.285347653,3591434.0735629047,-178.20089686197784,-4617.632681212689,6437.49162772606,0.9948612276932707,-3.141666138588464e-05,0.0002908238182902267,0.10124747931251561
0.915,1.0658567794559197e-05,0.0006142228178816505,-0.007115455948910958,-41.5125565672598,46.29605663957279,4.944330067629033,-1653824.9544011687,5085155.197180318,3591466.2614390836,-177.93754754030607,-4617.634252639378,6437.658843744771,0.9948630289147516,-3.159951315655376e-05,0.0002923666584771413,0.1012297743836957
0.92,-5.56281582688896e-06,0.0006304079624817172,-0.007127158792678379,-41.515060127404055,46.27761318276046,4.937761276233861,-1653825.8434307086,5085132.109005219,3591498.450151321,-177.67426841911436,-4617.635786967467,6437.826051222192,0.9948648290480704,-3.1733648512300816e-05,0.00029389646266169615,0.10121207705110394
0.925,1.4965712525888775e-05,0.000641107585219071,-0.007106293909777131,-41.50040786189707,46.25863948102725,4.936309163787935,-1653826.7311438995,5085109.020822487,3591530.6396993767,-177.41100786863274,-4617.63730603249,6437.993171103248,0.9948666318116453,-3.1912232996831866e-05,0.0002954624164019168,0.10119435058995253
0.93,-1.8974886768389816e-05,0.0006144686103467249,-0.007126004112530998,-41.493785335318215,46.2365193886868,4.9359664040167095,-1653827.617541045,5085085.932632162,3591562.830082879,-177.14785032768597,-4617.638823655005,6438.160229846365,0.9948684289729952,-3.204245104302454e-05,0.0002970601768842969,0.10117667597493471
0.935,-4.425385388061756e-06,0.0006272649416684768,-0.007091408904776649,-41.48090867128636,46.221283657629165,4.944317019965778,-1653828.502622588,5085062.844434324,3591595.0213014814,-176.88476688926437,-4617.640311723516,6438.327211081403,0.9948702308196146,-3.2250361686192394e-05,0.000298583095012775,0.10115895233233903
0.9400000000000001,-1.3005743649896846e-05,0.0006447607220156817,-0.007100913755852299,-41.475489835387144,46.20360257171567,4.930351676342892,-1653829.3863889659,5085039.756229133,3591627.21335494,-176.62178432121158,-4617.641764663068,6438.494172261968,0.9948720235922018,-3.242529548941293e-05,0.00030014152208903094,0.10114131469001317
0.9450000000000001,-7.636859727247664e-07,0.0006233021169789923,-0.007109098892136665,-41.46969120440375,46.17618843951273,4.931207623875524,-1653830.268840539,5085016.668016598,3591659.4062429573,-176.3588449358777,-4617.643249456518,6438.661034818918,0.9948738184386741,-3.262600117588019e-05,0.00030174129388377816,0.10112365338034406
0.9500000000000001,2.859151904939961e-06,0.0006237283709358076,-0.007092599662167833,-41.46873985656471,46.154184122827246,4.926568175209342,-1653831.149977619,5084993.5797967585,3591691.599965047,-176.09598701640374,-4617.644686145383,6438.827801008524,0.9948756150552187,-3.279083983844642e-05,0.0003032907883081126,0.10110597167308649
0.9550000000000001,9.295285158680284e-06,0.0006032600412322224,-0.007103639925239764,-41.445615604810754,46.143718784190455,4.928400973405227,-1653832.0298005166,5084970.491569796,3591723.794520733,-175.83317201593223,-4617.646098863595,6438.994473393871,0.9948774071853695,-3.294676303983573e-05,0.00030484225988921865,0.10108833096764287
0.96,-1.1952002755754463e-06,0.0006237793702253855,-0.0071074742818639505,-41.44487741129023,46.122125733300486,4.923801752257104,-1653832.9083096636,5084947.403335714,3591755.989909755,-175.5704868364544,-4617.647534023195,6439.161135360457,0.9948792018061302,-3.308151396249059e-05,0.00030634444831222323,0.10107066276763926
0.965,2.1468850853566603e-06,0.0006189205694965544,-0.007087296305500965,-41.43558154913263,46.109888828419436,4.915691362282478,-1653833.785505488,5084924.315094515,3591788.186131856,-175.30784291270567,-4617.648945552971,6439.327705109026,0.994880997062879,-3.3247544481100474e-05,0.00030789502125405633,0.1010529850050374
0.97,8.327446634740705e-06,0.0006165555389502011,-0.007093311647033095,-41.41991361627146,46.084835235972264,4.9159489646642776,-1653834.6613882384,5084901.2268461855,3591820.383186664,-175.0452572424651,-4617.650386298452,6439.494217938046,0.9948827869104138,-3.340401952358783e-05,0.00030943435527335336,0.10103535739492156
0.975,3.258278092352763e-06,0.0006187647366410071,-0.0070779078564476424,-41.42051158365739,46.06916583177245,4.910744192029463,-1653835.535958362,5084878.138590702,3591852.581073835,-174.7827922218479,-4617.65180692138,6439.660650479054,0.9948845779647318,-3.3544529493868235e-05,0.00031096936751000596,0.10101771478683606
0.98,-3.7694759360234662e-06,0.0006262868782724266,-0.007084851965825843,-41.41535031290891,46.044695026270915,4.908433730819839,-1653836.4092162203,5084855.050328142,3591884.779792991,-174.52035099349965,-4617.653217121644,6439.8270120392735,0.9948863648122136,-3.3698193492542594e-05,0.0003125085954923469,0.10100011046305142
0.985,6.310743881318378e-06,0.0006000096426324206,-0.007076955513305695,-41.40873950218615,46.02237916400033,4.914586545859785,-1653837.281162045,5084831.962058607,3591916.9793437207,-174.25797894089803,-4617.654597094325,6439.9932797429055,0.9948881530923966,-3.38712417902937e-05,0.0003140647574715012,0.10098248884072507
0.99,-1.681727628065358e-05,0.000602582543794272,-0.0070694235523944314,-41.4060409901636,46.00560425007172,4.910757050892422,-1653838.1517962161,5084808.873782311,3591949.179725638,-173.99568954361357,-4617.655921405393,6440.159487217383,0.9948899390864494,-3.4012578297524544e-05,0.0003155581075582866,0.10096488682104454
0.995,-8.246947331798634e-06,0.0005963191622916065,-0.007094219709586945,-41.37962664579924,45.97946673607449,4.90821404204923,-1653839.0211190463,5084785.785499422,3591981.3809384205,-173.73344244343386,-4617.6572340863895,6440.325625774042,0.9948917228620079,-3.421208287023224e-05,0.00031705201977499584,0.10094730352127249
1.0,-1.354037798532839e-06,0.0006138506699230329,-0.007091937543627203,-41.38253273717134,45.96630693924781,4.907330488411846,-1653839.8891310585,5084762.697209943,3592013.5829816866,-173.47136248444804,-4617.658557217129,6440.491680674955,0.9948935125869404,-3.438871003429998e-05,0.00031853251418375065,0.1009296585096451
1.0050000000000001,-4.333054348415559e-06,0.0006346644505194454,-0.007054804708326021,-41.367539704831884,45.94802711739613,4.9087424881670625,-1653840.755832707,5084739.608913915,3592045.7858551005,-173.2092969563473,-4617.659853938153,6440.657684920513,0.9948953014075389,-3.45526147153677e-05,0.0003200583528933482,0.1009120191353336
1.01,2.1683626313638575e-05,0.0006365163297120006,-0.007082700804946948,-41.36083332401413,45.915770245742,4.897013099548584,-1653841.6212242953,5084716.5206114305,3592077.9895584104,-172.94733829365538,-4617.6611401247,6440.823639016622,0.9948970805298192,-3.4729150099345245e-05,0.00032163521199453355,0.10089447208801457
1.0150000000000001,6.06269709172972e-06,0.0006486909460738611,-0.007078023462517013,-41.350093789985415,45.902279696792796,4.892164350596975,-1653842.485306285,5084693.432302534,3592110.194091114,-172.68545761881333,-4617.662418451286,6440.989442541074,0.9948988663760575,-3.484146521515663e-05,0.00032322323699359714,0.1008768556034884
1.02,2.818692656817929e-06,0.0006108725621928642,-0.007065880804746644,-41.34655014476631,45.880210646400826,4.89208314425548,-1653843.3480790493,5084670.343987205,3592142.3994527063,-172.42364807280222,-4617.663713129996,6441.155194330418,0.9949006507172152,-3.499569999487101e-05,0.00032483760410245493,0.10085925073236368
1.025,8.843780168313236e-06,0.0006110677788603525,-0.007079762956306427,-41.33993653829969,45.85757619640906,4.897005503060478,-1653844.2095429169,5084647.255665495,3592174.6056428594,-172.161898949182,-4617.664970931924,6441.320866897856,0.9949024317135996,-3.5148457723233125e-05,0.0003263570903648539,0.10084167603725068
1.03,2.3663183923457105e-06,0.0006069612555791888,-0.007062036945972666,-41.333011441444334,45.850619221542246,4.892424688347679,-1653845.0696982427,5084624.167337624,3592206.812661213,-171.90023142725406,-4617.666177150367,6441.48647444831,0.9949042158967197,-3.5286290046269345e-05,0.00032787857980826345,0.10082406677697486
1.035,-2.0187535188459007e-06,0.0006111590334663621,-0.007064589513302711,-41.31064900616605,45.83027687808211,4.888015089122646,-1653845.9285453376,5084601.079003667,3592239.020507535,-171.63860648172613,-4617.667405859694,6441.652054343163,0.9949059953014137,-3.5439183872376496e-05,0.0003293882240087591,0.10080650157983703
1.04,1.1475212271450608e-05,0.000608468268613965,-0.007050189798150107,-41.2962594385499,45.80879581493454,4.884362450919186,-1653846.7860846478,5084577.990663509,3592271.2291815844,-171.37711764186523,-4617.668657295595,6441.817565484254,0.9949077750330174,-3.560404453337275e-05,0.00033090720375621163,0.10078893000536022
1.045,3.6656460516543887e-07,0.0006115444911903615,-0.007068059411561257,-41.305454882975305,45.786934253283945,4.883634046449581,-1653847.6423167724,5084554.902317092,3592303.4386829953,-171.1157321729398,-4617.669909517362,6441.9829987455105,0.9949095508276985,-3.573465214376759e-05,0.00033242289213035215,0.10077139420432212
1.05,1.5422973753815197e-05,0.0006130221088106083,-0.007064675017093797,-41.29660581849664,45.762507929383965,4.889710987043019,-1653848.4972419746,5084531.813964564,3592335.6490113446,-170.85434873425393,-4617.671101759429,6442.148341185199,0.9949113308085206,-3.589367983105894e-05,0.0003339434316270387,0.10075381393399925
1.055,-7.3635344282099065e-06,0.0006037946392218986,-0.007054842743406338,-41.28599940631053,45.748170738896285,4.886153960926805,-1653849.3508605005,5084508.725606213,3592367.8601662386,-170.59306160442063,-4617.672238320257,6442.31361639645,0.994913109624155,-3.6015627390319973e-05,0.0003354714390453182,0.10073624203722485
1.06,2.586779487565824e-06,0.0006095710207627927,-0.007023808756174281,-41.27335750810683,45.72473978738379,4.874621152113616,-1653850.2031727748,5084485.637242158,3592400.0721473796,-170.33184813536315,-4617.673383903784,6442.478839868022,0.9949148856570913,-3.6191919329915376e-05,0.00033697075734945384,0.10071869458442428
1.065,1.642834843514851e-05,0.0006166683298730242,-0.007058195900530794,-41.26616247712941,45.69847581351214,4.87729283496119,-1653851.0541792042,5084462.548872315,3592432.2849543644,-170.07072355872307,-4617.674553254234,6442.643954019729,0.9949166535613889,-3.6344890299798697e-05,0.0003384869513329222,0.10070122428173374
1.07,-1.5606629706767052e-05,0.00061743335467884,-0.007042032983570285,-41.26344293816518,45.69201575623662,4.875862534278413,-1653851.90388023,5084439.460496751,3592464.4985867054,-169.80968676137903,-4617.675672679059,6442.80898252753,0.9949184298073936,-3.6465249107936946e-05,0.00034002427982114767,0.10068366840438993
1.075,2.077937361069785e-06,0.0006135532916743155,-0.007047933783284404,-41.2376749027506,45.66702100746662,4.874575697131979,-1653852.7522761389,5084416.372115582,3592496.7130441386,-169.5486767962021,-4617.676794644968,6442.973990681364,0.9949202016700315,-3.6665467204399946e-05,0.0003415554490217912,0.10066615272465068
1.08,1.0975044003853849e-05,0.0006006017603487049,-0.00702963910717059,-41.23371580323554,45.63707517831517,4.866473194994474,-1653853.5993674072,5084393.283728788,3592528.928326422,-169.2878305407555,-4617.677923278363,6443.138922668525,0.9949219747116511,-3.682072701788889e-05,0.0003430814172854477,0.10064862232163942
1.085,9.689537716801476e-06,0.0006140313351170661,-0.007031904888052818,-41.226614382985694,45.61714025366014,4.86493165688231,-1653854.4451546094,5084370.195336406,3592561.144433032,-169.02705034029609,-4617.679029368892,6443.3037212619365,0.9949237428514897,-3.6950582426751864e-05,0.0003445774114221471,0.10063113738522934
1.09,1.1059633309646318e-05,0.0006006545389001658,-0.007026260255351399,-41.218848421993066,45.60550147814736,4.865177085891462,-1653855.289638087,5084347.106938541,3592593.361363455,-168.76634068352016,-4617.680116462324,6443.468448043464,0.9949255112399864,-3.708701581122647e-05,0.0003461064853443733,0.10061364678166619
1.095,-5.861600984887033e-06,0.0006296975641445767,-0.00706402187735269,-41.211659396500735,45.58699870022903,4.8719274569421485,-1653856.1328181685,5084324.018535255,3592625.579117431,-168.50569192539717,-4617.681197914952,6443.633142259539,0.9949272779108391,-3.721667172178795e-05,0.00034760263201852955,0.10059617018682898
1.1,-1.559376858183621e-05,0.0006258244707508865,-0.007021194581536666,-41.2106917968208,45.55846331335152,4.862558799400052,-1653856.9746952036,5084300.930126683,3592657.7976947706,-168.24512216454545,-4617.682231150456,6443.797793731141,0.9949290537405692,-3.739575297252062e-05,0.00034916675878733254,0.10057859964738024
1.105,-7.3298828554660435e-06,0.0006274563162260153,-0.0070457700212204375,-41.19127563853412,45.53107017918853,4.862456906980639,-1653857.8152695112,5084277.8417129945,3592690.017095034,-167.98460086450314,-4617.683243935312,6443.962311529233,0.9949308184931247,-3.759802999187036e-05,0.0003507188086986005,0.10056113561066474
1.11,1.406016979539138e-06,0.000618435578551664,-0.007040277069301793,-41.1783536527908,45.52164344028733,4.863151246669248,-1653858.6545415649,5084254.753294284,3592722.2373176664,-167.72422057689607,-4617.684240136773,6444.126741420367,0.9949325891132984,-3.778018381128848e-05,0.000352276992688317,0.10054361040805515
1.115,-6.22915914917525e-07,0.0006274287498858477,-0.007030738657291139,-41.17555463307826,45.49650991599857,4.853543145500472,-1653859.4925119185,5084231.664870573,3592754.458362403,-167.46392090663286,-4617.685244575484,6444.291153249445,0.9949343580506701,-3.793833625886635e-05,0.0003538149353693255,0.1005260988299811
1.12,-3.5683301728634625e-07,0.0006111460712391522,-0.007016985391964744,-41.16457832174334,45.46682694405739,4.856805083696162,-1653860.3291808993,5084208.576441859,3592786.680228901,-167.2036714502285,-4617.686241036435,6444.455446028899,0.9949361242725354,-3.8103787016223436e-05,0.0003553747379807948,0.1005086109467403
1.125,-6.185197946315463e-06,0.000591282321086282,-0.007021080038072844,-41.15050509951845,45.456201949167294,4.843675656586389,-1653861.164548912,5084185.488008293,3592818.9029166265,-166.94353358071334,-4617.687185086834,6444.619644028347,0.9949378867439225,-3.8264472330583674e-05,0.00035689410808805854,0.1004911572426334
1.1300000000000001,-1.2055594004129605e-05,0.0006013151400894178,-0.007006955751891175,-41.138392086643734,45.421447089844335,4.849662074187407,-1653861.9986164107,5084162.399569852,3592851.12642519,-166.68346586228787,-4617.68819142562,6444.783781343122,0.994939649952557,-3.843466811107752e-05,0.0003583626054510842,0.10047369332966047
1.135,8.755813488673467e-06,0.000621762846439277,-0.006989143453775951,-41.13232086941966,45.41199729866461,4.84394243727661,-1653862.8313838937,5084139.31112656,3592883.3507541725,-166.42352740992405,-4617.68912531107,6444.947811792663,0.9949414092957072,-3.8621973036073226e-05,0.00035985458463291386,0.10045626452189693
1.1400000000000001,1.3105581994491854e-05,0.0006113237003793731,-0.00700798998062098,-41.12091071131865,45.3838213737282,4.849112720704291,-1653863.6628517888,5084116.2226785505,3592915.575903203,-166.16363059659858,-4617.690078593211,6445.11180040539,0.9949431638422205,-3.876263184731021e-05,0.0003614026526886925,0.10043887996793627
1.145,-4.04728261901663e-06,0.0006111496215141078,-0.006990252829035859,-41.11418712533688,45.3627066912908,4.842233678764468,-1653864.4930204828,5084093.134225913,3592947.801871969,-165.90384700737025,-4617.690976230027,6445.275705993688,0.9949449228239554,-3.888986700310724e-05,0.0003629258451287967,0.100421448502014
1.1500000000000001,8.045698926399183e-06,0.0006281688971227836,-0.00700165857237834,-41.096385001239334,45.33584150713533,4.833353831692202,-1653865.3218904189,5084070.045768792,3592980.0286600334,-165.64412746051585,-4617.69187234056,6445.439519678025,0.9949466770442548,-3.905970773950196e-05,0.00036444429989543965,0.10040406113941301
1.155,-8.361137871839101e-07,0.0006232846615791002,-0.0070026045317699145,-41.08935956948575,45.32247548983733,4.8255188051191595,-1653866.149462061,5084046.957307151,3593012.2562668864,-165.38452939187087,-4617.692784287356,6445.603221628147,0.9949484338064468,-3.920375118732873e-05,0.00036600812207637524,0.10038664536291171
1.16,-1.4664486129933438e-05,0.0006011240701155235,-0.0070185155787798725,-41.081500554822796,45.28918509877087,4.834536105020912,-1653866.9757358385,5084023.868840897,3593044.4846920925,-165.1249815602255,-4617.693716868115,6445.766860714351,0.9949501905023183,-3.9368662072562843e-05,0.0003675575661068393,0.10036922721105626
1.165,3.8964430891357646e-06,0.0006058082137231025,-0.007010968204567972,-41.06704706230852,45.26554132050982,4.818686272828278,-1653867.8007121552,5084000.780370207,3593076.7139352537,-164.8655451311011,-4617.69455962294,6445.930403818333,0.9949519509016846,-3.956242331680046e-05,0.00036904841688818995,0.10035176946627443
1.17,-5.607495063585409e-06,0.0005878023077277081,-0.007019736758487054,-41.05349971480886,45.24652183558153,4.82918182212358,-1653868.624391519,5083977.691895192,3593108.9439958283,-164.6062004130307,-4617.695446250223,6446.093826014415,0.9949537090968301,-3.9711184658832746e-05,0.00037055557610145897,0.10033433044600051
1.175,-1.784030719763554e-05,0.0006124279246780546,-0.006987518694530792,-41.056934506571714,45.22230439229445,4.8202094001072675,-1653869.4467744422,5083954.603415872,3593141.174873441,-164.3469688673831,-4617.696281661937,6446.257219013597,0.9949554691989216,-3.9879077531645914e-05,0.00037201556279383113,0.1003168695944696
1.18,1.9239477308807953e-06,0.000621045538552647,-0.007019074945060409,-41.041625543145805,45.206446250500164,4.816791161211448,-1653870.267861261,5083931.5149324285,3593173.4065677216,-164.0877586344266,-4617.697095887267,6446.4204932301,0.9949572208895885,-4.008354409843896e-05,0.0003735337381705005,0.10029948885972799
1.185,-8.515805197018623e-06,0.0005992495100491318,-0.006986763958231351,-41.022628367856946,45.18130279083247,4.819052012282534,-1653871.0876522723,5083908.426444877,3593205.6390782385,-163.82864590098808,-4617.697924582948,6446.58371359282,0.9949589801795171,-4.02410395064386e-05,0.0003750783015241059,0.10028202958188351
1.19,-1.493124619378826e-05,0.000601645469793966,-0.0069907688630985836,-41.01078906906518,45.15332352109512,4.820477662180504,-1653871.906148065,5083885.337953237,3593237.872404676,-163.56967120661199,-4617.698731589517,6446.746861353984,0.9949607310810272,-4.041900804401148e-05,0.0003765660353276881,0.10026465065531677
1.195,3.0107062771657788e-06,0.0006106160177730803,-0.006977219956177365,-41.00751718602021,45.138825417046945,4.817996384340402,-1653872.7233492592,5083862.24945766,3593270.106546621,-163.31080641985093,-4617.699499017247,6446.90991669575,0.994962482677537,-4.061353869426312e-05,0.00037805812022055385,0.1002472617419062
1.2,-5.74823674371155e-06,0.0006169785533509504,-0.006980235307501161,-40.99275190727868,45.110134604144854,4.803270869943219,-1653873.539256235,5083839.160958273,3593302.3415037035,-163.05198387854543,-4617.700255695685,6447.072916381099,0.9949642305661867,-4.0765675784598853e-05,0.00037957701634870557,0.10022990648147148
1.205,3.495856548964714e-06,0.0006235797768456687,-0.006977633190136152,-40.98764702990376,45.08998341720851,4.809009519346279,-1653874.353869357,5083816.072455032,3593334.5772754396,-162.79326489504183,-4617.701040760496,6447.2357779952,0.9949659788982753,-4.0941197102193263e-05,0.0003811095435213056,0.1002125436975381
1.21,-1.500614306165738e-06,0.0005895962997740248,-0.006966021195258777,-40.964998771783335,45.05755968816341,4.797451630632579,-1653875.1671890619,5083792.983947997,3593366.813861348,-162.53461707743926,-4617.701773410544,6447.398585486821,0.9949677262678388,-4.1095375845663354e-05,0.0003826608067605579,0.1001951873459205
1.215,1.8621836717494762e-05,0.0006155187125341006,-0.006957232800996592,-40.96615371254805,45.03818237430815,4.803791870036991,-1653875.9792159018,5083769.89543724,3593399.05126095,-162.2761189448293,-4617.702529504692,6447.5612550984515,0.9949694704561831,-4.125345933390065e-05,0.00038412628836256857,0.10017785985580567
1.22,-1.3424179583034548e-05,0.0006072358038163039,-0.006963279443783073,-40.94621590325416,45.01819709460518,4.7983102146274215,-1653876.7899503573,5083746.806922866,3593431.289473763,-162.01766324714862,-4617.703219770711,6447.723870217112,0.9949712121170647,-4.1367973438406134e-05,0.0003856612903371684,0.10016055417358183
1.225,1.802912303821158e-05,0.0005774753530517852,-0.0069727727248520745,-40.94276795356883,45.00233983464457,4.793853562216799,-1653877.5993928418,5083723.718404985,3593463.5284994706,-161.75933053240757,-4617.703932528749,6447.886412708955,0.99497295499312,-4.1560131467555675e-05,0.0003871676640625572,0.10014323345196209
1.23,3.584023136644712e-06,0.0006018357696273765,-0.006975606185744482,-40.93532706568912,44.970160043260215,4.798772957619364,-1653878.4075437698,5083700.629883556,3593495.768337724,-161.50104071111818,-4617.704639505884,6448.048888599961,0.9949746999738505,-4.166660993968364e-05,0.00038860788416272477,0.1001258890584862
1.235,3.2658314527556016e-08,0.0006007461975009217,-0.006963354633566534,-40.921872391070224,44.95073075781709,4.790175677929101,-1653879.2144035043,5083677.541358771,3593528.008988098,-161.24285302789994,-4617.705274417752,6448.211261104027,0.9949764453340343,-4.181512019508635e-05,0.0003901050830230153,0.10010853759779607
1.24,-3.1260094533134214e-06,0.0006211216568653393,-0.006943027169694341,-40.893684581821,44.92332116870461,4.7860373472313364,-1653880.0199725223,5083654.452830754,3593560.2504501236,-160.98475422720188,-4617.705932132687,6448.373549171845,0.9949781873243883,-4.1972179611400586e-05,0.00039159868399339496,0.10009121658508023
1.245,6.842675900149609e-06,0.0006179672278891472,-0.006945407877173933,-40.89636857846019,44.89770635197931,4.785088719445843,-1653880.8242514841,5083631.364299406,3593592.492723359,-160.72683044404926,-4617.706606884545,6448.53574496778,0.9949799239049889,-4.214217463952893e-05,0.0003931421794343113,0.1000739461062986
1.25,6.731688865184937e-06,0.0006014147654993014,-0.006952612138361248,-40.87626764792016,44.879228809812126,4.788779745519054,-1653881.6272409202,5083608.275764822,3593624.7358073196,-160.46894402406,-4617.707227000906,6448.697839266434,0.9949816607830946,-4.2286586199876625e-05,0.00039468032203542075,0.10005666966575996
1.2550000000000001,-8.893199617445574e-06,0.00061188724413675,-0.006951258776761656,-40.86973257845886,44.86170560689698,4.784200476786581,-1653882.4289412561,5083585.187227162,3593656.97970165,-160.21119035799404,-4617.707837228299,6448.859892795933,0.9949833991770043,-4.242714047031998e-05,0.0003961772625011098,0.10003937527638114
1.26,-1.0913801541458637e-05,0.00061350162732886,-0.006946645559106169,-40.852938752988706,44.834640132404616,4.783009362904457,-1653883.2293529727,5083562.098686457,3593689.2244060696,-159.9534962355354,-4617.708444599823,6449.021875129785,0.9949851369175781,-4.260917879960573e-05,0.0003976963450855411,0.10002208423735004
1.2650000000000001,-2.2844626321965423e-07,0.0005783540312451413,-0.006942144737160081,-40.84810864976357,44.815744752863644,4.769318936649153,-1653884.028476536,5083539.0101427585,3593721.469920171,-159.69592914593846,-4617.709034829542,6449.183765415051,0.9949868732001511,-4.279664238641924e-05,0.00039921893849659143,0.10000480464494202
1.27,5.0126748730805555e-06,0.0005951065515780914,-0.006924198997888062,-40.83543528688743,44.78569047101956,4.773991575726516,-1653884.8263123706,5083515.921596043,3593753.7162434645,-159.43840469124362,-4617.709651457777,6449.34555203079,0.9949886080915832,-4.2948734676410985e-05,0.0004006567752433314,0.0999875362109128
1.2750000000000001,1.4531102222659745e-05,0.0006105086460839804,-0.006944097312198374,-40.827254376718706,44.7546308923427,4.774871567709315,-1653885.6228608866,5083492.833046382,3593785.963375463,-159.18100164339685,-4617.710212532726,6449.5072474302115,0.9949903381798556,-4.309195944672655e-05,0.00040213759532989834,0.09997031237909594
1.28,-4.38889185296484e-06,0.0006083422478311933,-0.006933714787395424,-40.8101069732095,44.72656857548132,4.770271796368612,-1653886.4181226327,5083469.744494047,3593818.211315665,-158.92369676276655,-4617.710721455584,6449.668833217085,0.9949920729254998,-4.321537673102873e-05,0.0004036591043894985,0.09995303900920456
1.285,-8.620262892654698e-06,0.0006053195970322869,-0.006930947796160305,-40.80044311659391,44.704854803813596,4.7615760011594634,-1653887.2120981691,5083446.655939181,3593850.460063532,-158.666517886488,-4617.711225050612,6449.830313644711,0.9949938047751428,-4.338530528980812e-05,0.0004051704977984163,0.09993579145465424
1.29,-3.287842947105959e-06,0.0006105065786429822,-0.006938004736958675,-40.782730220869674,44.70075202770857,4.766686200155233,-1653888.0047880008,5083423.567381771,3593882.709618558,-158.40941477141118,-4617.711738742571,6449.9916968672815,0.9949955356349406,-4.356500132512438e-05,0.00040667331542424106,0.09991855075731917
1.295,-1.5610683293815458e-05,0.0006021326499892261,-0.006904946501191929,-40.76332111184471,44.665934868154906,4.750659150627759,-1653888.796192562,5083400.478821762,3593914.9599805498,-158.15240969890905,-4617.712265080876,6450.153099643007,0.9949972679515058,-4.373273587603269e-05,0.00040819036673636085,0.09990129246967555
1.3,-1.207853670418746e-07,0.0006096937872064438,-0.006940609343995307,-40.76610686983259,44.640604649894314,4.7648924179006,-1653889.5863124316,5083377.390259049,3593947.2111491472,-157.89553818119197,-4617.712820215496,6450.314339484279,0.9949989917186596,-4.392899824406828e-05,0.00040968351378011707,0.09988411639751636
1.305,-3.265340341421968e-06,0.0005972836347123957,-0.00690343914826053,-40.7574888678822,44.605977079689396,4.754713375875484,-1653890.3751480833,5083354.301693846,3593979.4631237993,-157.63872245235956,-4617.713261280052,6450.475521270474,0.9950007240848308,-4.4088654136770896e-05,0.00041119933308032233,0.0998668515672825
1.31,-3.6690027307963083e-06,0.0005957984481733466,-0.006902227269071895,-40.735326137809786,44.58146597778058,4.755733716128062,-1653891.162699887,5083331.213126476,3594011.715903973,-157.38199900994132,-4617.713686440532,6450.636548374046,0.9950024468830017,-4.425299548432103e-05,0.00041268350098460667,0.0998496791724441
1.315,-1.068637298138496e-05,0.0005861208925755835,-0.006906177017837834,-40.72955279553362,44.56881081946472,4.7457472469111766,-1653891.9489684466,5083308.124557003,3594043.969489105,-157.12542486191822,-4617.7141025066685,6450.797504287705,0.995004169081614,-4.441796894245212e-05,0.0004141638737246451,0.09983250976278532
1.32,-4.795215896027345e-06,0.0005919519516069677,-0.006912629880449598,-40.71551733383988,44.53631602823409,4.748141697900919,-1653892.7339542364,5083285.03598538,3594076.223878848,-156.86889107019906,-4617.714546574431,6450.958392925131,0.9950058919766417,-4.459798692183948e-05,0.0004156184214771652,0.09981533050646528
1.325,2.4019644480295623e-05,0.0005939997821361682,-0.0068927312668366995,-40.70809711629658,44.50267981509073,4.749672016009571,-1653893.5176576795,5083261.947411661,3594108.4790727682,-156.6124861524678,-4617.714941156744,6451.119175087188,0.9950076161774618,-4.476481232532916e-05,0.00041708894330002227,0.09979813516178433
1.33,-1.8019775109555802e-05,0.0005984881349148061,-0.0069081112132776245,-40.68267110995982,44.48818575744639,4.740801389608664,-1653894.3000793483,5083238.858836125,3594140.7350703017,-156.35618135468755,-4617.715273490982,6451.279838296525,0.9950093351162639,-4.4860450377000594e-05,0.00041857175041540854,0.09978098925506969
1.335,-9.433774411483811e-06,0.0006028161347900158,-0.006893682383867095,-40.67139653656344,44.46974126970727,4.738246479707097,-1653895.0812198261,5083215.770258778,3594172.9918710124,-156.10000982785215,-4617.71566535917,6451.4404460025635,0.9950110575838924,-4.506179817728443e-05,0.0004200552337255168,0.09976380510395051
1.34,1.0568288107506187e-06,0.0006074886341380578,-0.006886410434244092,-40.66170537680662,44.43736057659736,4.736990720052701,-1653895.8610796588,5083192.68167948,3594205.2494745976,-155.84392324499268,-4617.716053886403,6451.600988194025,0.9950127761508557,-4.5242852342041766e-05,0.0004215516259847082,0.09974665680552053
1.345,1.0529194518017493e-05,0.0006084034498592092,-0.006896576055053425,-40.64872007695976,44.4192658680176,4.73577115253798,-1653896.6396593198,5083169.593098348,3594237.5078805946,-155.5879411158045,-4617.716398638903,6451.761410574597,0.9950144926031969,-4.5398968284399805e-05,0.00042306225793823477,0.09972952655488951
1.35,7.682112450243468e-06,0.00063541227116204,-0.006902725464059601,-40.62949690192145,44.38999404064491,4.730906868481539,-1653897.4169593044,5083146.504515504,3594269.767088556,-155.3320526830759,-4617.716739038273,6451.921773983571,0.9950162112925286,-4.553176019735741e-05,0.0004245775259350545,0.09971237097695304
1.355,-8.625434209406052e-06,0.000592682668974685,-0.0068644933885788255,-40.619280887644386,44.3539875242107,4.732568126341616,-1653898.1929801893,5083123.415930965,3594302.027098061,-155.0763012787765,-4617.717076497342,6452.082027944679,0.9950179311873417,-4.5678373639947275e-05,0.0004261592689188875,0.0996952000721512
1.36,1.0550492207551141e-05,0.0005976760076645282,-0.0068848538440251785,-40.61418090940676,44.33276449639878,4.723043177269075,-1653898.9677226096,5083100.327344895,3594334.2879085205,-154.8206669235144,-4617.71735137265,6452.242155973482,0.9950196412999052,-4.58548622492855e-05,0.0004276306598802195,0.09967812426384423
1.365,-8.021045752071207e-06,0.0006160833995821393,-0.0068760263603468135,-40.600502602390854,44.31858964040836,4.716089953887855,-1653899.7411869916,5083077.238757439,3594366.549519367,-154.56508576424184,-4617.717631285243,6452.402182576164,0.9950213561869435,-4.5984915869886325e-05,0.00042911924810634606,0.0996609977571677
1.37,-1.0698058202293633e-05,0.0006094274935592419,-0.0068875851075179025,-40.58424115038394,44.287274558787935,4.712736939275148,-1653900.5133736734,5083054.150168511,3594398.8119302,-154.30958700681455,-4617.71793984875,6452.562150642774,0.9950230685560134,-4.616574394649284e-05,0.0004306489994445098,0.09964389319741845
1.375,-9.28437280666369e-06,0.0005922265768485028,-0.006865303073922024,-40.573898630500615,44.272941268642256,4.7097393333017985,-1653901.2842831847,5083031.061578089,3594431.0751405833,-154.0542175411213,-4617.718228728856,6452.722002707874,0.9950247835144785,-4.635158562562179e-05,0.00043216152550020387,0.09962675985854133
1.3800000000000001,6.357098851702722e-06,0.0006032396447751118,-0.006861274511665017,-40.55722378683382,44.2359944332217,4.7106805475070095,-1653902.0539160308,5083007.972986209,3594463.3391501,-153.79892086177315,-4617.718523490634,6452.881803910029,0.9950264926456638,-4.652960240835352e-05,0.0004336316177653963,0.0996096819184011
1.385,-8.0780356525952e-06,0.0006015778583524896,-0.006847568508671084,-40.54605374290074,44.2084482614072,4.709733373404274,-1653902.82227276,5082984.884392977,3594495.6039583064,-153.5437708962931,-4617.718769536896,6453.041478540064,0.9950282004683569,-4.667144813377354e-05,0.00043513300121149654,0.09959261395179059
1.3900000000000001,-1.2223838812515749e-05,0.0006308406686683787,-0.006868075318462175,-40.53947411057158,44.189247860710694,4.707224548306123,-1653903.5893539966,5082961.795798591,3594527.86956464,-153.28872368607728,-4617.7189846412575,6453.201055005426,0.9950299045841902,-4.6848773596178486e-05,0.00043662665823520535,0.09957558006625494
1.395,4.1642686452711e-06,0.0005838156534880977,-0.006853444988343867,-40.511609020134195,44.15494944193834,4.712250961528284,-1653904.35516016,5082938.7072031675,3594560.1359686754,-153.03374166687644,-4617.719184764634,6453.3605590605475,0.9950316134777003,-4.7043719077841816e-05,0.00043819207410423935,0.09955849514008956
1.4000000000000001,2.289683416815139e-06,0.0005926175695298444,-0.006850449695095427,-40.4990446942908,44.13571937206045,4.697085741754736,-1653905.119691907,5082915.618606833,3594592.4031699924,-152.77895709284718,-4617.719349005444,6453.519967897285,0.9950333184881944,-4.7186177456442524e-05,0.0004396445920604901,0.0995414465660855
1.405,-4.86244781534384e-06,0.0005956131359336017,-0.006858386407377272,-40.48848022757665,44.108469001134345,4.690821967230659,-1653905.8829499206,5082892.53000956,3594624.6711680964,-152.5242483550095,-4617.719560304059,6453.6792736982625,0.9950350224492767,-4.733548610447183e-05,0.00044111853924213093,0.09952440541472099
1.41,4.908357587081866e-07,0.0006060661914413022,-0.006842907371060714,-40.47686853341978,44.07327791667202,4.698028252392982,-1653906.644934622,5082869.441411257,3594656.9399624486,-152.2696322561613,-4617.719761033052,6453.838467130609,0.995036728086569,-4.750334037364222e-05,0.00044259815755873444,0.09950734449817833
1.415,-7.73987559047617e-06,0.0005930409343417098,-0.006851694683278289,-40.464139828593595,44.05901887980292,4.692921162451869,-1653907.4056465651,5082846.352812149,3594689.2095525027,-152.01514500436878,-4617.719881993688,6453.997554460699,0.9950384295681254,-4.766046110634597e-05,0.00044410511224573883,0.09949032205058278
1.42,-1.0795349307898657e-05,0.0005884093691393404,-0.006858082927877039,-40.4421826382467,44.03278253591339,4.686230498119805,-1653908.1650862736,5082823.264212389,3594721.479937857,-151.76073834354688,-4617.72002211282,6454.156587202421,0.9950401329549771,-4.783482654888435e-05,0.00044557761698586003,0.09947327772501649
1.425,-5.830546706795956e-07,0.0006077119478208945,-0.006835645835818946,-40.441845441495786,43.99545762444184,4.686016969659557,-1653908.923254302,5082800.175611886,3594753.7511181245,-151.50647307938294,-4617.720178963484,6454.3155198032455,0.9950418376408733,-4.8015648098414284e-05,0.0004470378395020993,0.09945621748257752
1.43,1.59308070212178e-05,0.0005772966944877492,-0.006838618586749515,-40.41814924675032,43.97090748906287,4.676842249336586,-1653909.6801511855,5082777.087010795,3594786.0230926927,-151.25228030507162,-4617.720257317128,6454.474307633642,0.9950435364338814,-4.817583981080726e-05,0.0004485486209535797,0.09943921301165862
1.435,9.102450462813078e-06,0.0006026500640923691,-0.006835814543001254,-40.417902136651456,43.94879811660839,4.674513124873479,-1653910.4357774626,5082753.998409228,3594818.2958609536,-150.99823051110798,-4617.720369580314,6454.6329966322155,0.9950452357091032,-4.8287393642097204e-05,0.0004499878459754229,0.09942220110157225
1.44,-1.0098216843987574e-05,0.0005875348528421297,-0.006843556078419793,-40.39045447796951,43.9179281885551,4.679138816513248,-1653911.190133596,5082730.909807188,3594850.569422437,-150.74422285501674,-4617.720446462286,6454.791596674099,0.9950469339651272,-4.842223233338561e-05,0.00045148844335179776,0.09940519614221803
1.445,-2.524401282313221e-06,0.0006009065135969334,-0.006843333538975749,-40.379791174171615,43.893698792273646,4.668090110984201,-1653911.9432201632,5082707.821204832,3594882.843776713,-150.49040404250175,-4617.720495984716,6454.950113856749,0.9950486338666215,-4.860108733492979e-05,0.00045294666718123465,0.09938817191910349
1.45,-1.546489089831826e-05,0.0006003958494838765,-0.006845859141516269,-40.36738882560331,43.866501653840324,4.659536729516144,-1653912.6950378402,5082684.732602189,3594915.1189232916,-150.2366666994396,-4617.720560910522,6455.108517585795,0.9950503334051481,-4.8764423745370216e-05,0.00045444003640525367,0.09937114821007115
1.455,5.200885273201661e-06,0.0005769855263918267,-0.0068300063741842465,-40.34698573823793,43.84121810883784,4.675330938131415,-1653913.4455870748,5082661.643999217,3594947.394861596,-149.98302714488386,-4617.720628110608,6455.26680420908,0.995052033276509,-4.895982724382098e-05,0.0004559289200677709,0.09935411820372826
1.46,1.4203773535426388e-05,0.0005746469787095865,-0.006822142651524,-40.33635049909215,43.81034264560509,4.662772587472435,-1653914.1948685155,5082638.555396091,3594979.671591247,-149.72954915526202,-4617.720622410975,6455.425056123175,0.9950537289465441,-4.909798907202995e-05,0.0004573647023873714,0.09933712758326638
1.465,-1.5213415718006368e-06,0.0006074553337327103,-0.006812417015374274,-40.32346476420425,43.7879202302906,4.654511840501634,-1653914.9428827944,5082615.466792978,3595011.9491117955,-149.47616242035403,-4617.720622677652,6455.583163305603,0.9950554223756161,-4.921316523898472e-05,0.00045879690388923953,0.09932015648572898
1.47,1.1616436541114128e-05,0.0005877660765350904,-0.006800445310758885,-40.30225694518265,43.74946166980958,4.657820611208525,-1653915.6896303692,5082592.378189831,3595044.227422639,-149.2228674507413,-4617.720636009307,6455.741173952143,0.9950571130590338,-4.9375594966336913e-05,0.0004603068172300831,0.09930320956699244
1.475,-1.4009494087550087e-05,0.0005915997939013871,-0.0068154524428536605,-40.29423008894,43.729274037876046,4.646905768687968,-1653916.4351119006,5082569.289586749,3595076.5065232287,-148.96974512443063,-4617.72059689703,6455.899062050163,0.995058800504321,-4.950044078764474e-05,0.00046177101363466743,0.09928629238791764
1.48,2.0930026240622232e-05,0.000585731385726841,-0.006782187905236507,-40.27876285850321,43.69941531202394,4.654903828748496,-1653917.1793279767,5082546.200983816,3595108.786413012,-148.71668532351416,-4617.720576482331,6456.0568512758155,0.9950604913766091,-4.9690003777592666e-05,0.000463238384223741,0.09926933787652778
1.485,2.0128417406135312e-07,0.0005716345886092802,-0.006786872375627838,-40.267238250799146,43.6788566945468,4.655688497705653,-1653917.9222790976,5082523.112381142,3595141.0670915437,-148.46376303182473,-4617.7204932186805,6456.214561299517,0.9950621737150305,-4.9791154506401656e-05,0.00046469983131508606,0.09925246604707723
1.49,-1.8045551901491817e-06,0.0005876956472376895,-0.006790448194719828,-40.25257973017838,43.654443010962865,4.639739426883701,-1653918.6639658418,5082500.023778936,3595173.348558463,-148.21093464706917,-4617.72038881342,6456.372206495474,0.9950638569412613,-4.9940378776119695e-05,0.0004661210662677824,0.09923558256135327
1.495,2.987329180756763e-07,0.0005866304024816718,-0.006789554605339583,-40.239109295321704,43.62082938691016,4.645039983115125,-1653919.4043886773,5082476.935177147,3595205.6308132964,-147.95819960688766,-4617.720326764367,6456.529726936692,0.9950655407469418,-5.0098581615168706e-05,0.000467581757459562,0.09921869015174872
1.5,-3.6156495282792613e-05,0.0005824355821166427,-0.006793836894138153,-40.22248371974034,43.593362936618455,4.638523486546807,-1653920.1435481673,5082453.846575831,3595237.913855473,-147.70559631810386,-4617.720199724349,6456.687143705493,0.9950672240436058,-5.025128689084644e-05,0.00046904032037037324,0.09920179993396518
1.5050000000000001,7.667325911170508e-06,0.0005667037340914547,-0.006793795914798653,-40.20518008535512,43.56105395864701,4.628098880010536,-1653920.8814449399,5082430.757975144,3595270.197684461,-147.4531127739566,-4617.720074845058,6456.844451299274,0.9950689081136344,-5.04936453458282e-05,0.00047047940622570736,0.09918489907773138
1.51,6.2037945747919265e-06,0.0005756541466134876,-0.006776460548287253,-40.182902301734195,43.54772290928436,4.6347999366056785,-1653921.6180796109,5082407.669375063,3595302.482299638,-147.2007556264984,-4617.71995779873,6457.00161963928,0.9950705919084274,-5.0623083528787124e-05,0.0004718902229206349,0.0991679982450637
1.5150000000000001,-1.1383479371492785e-05,0.0005916399264317612,-0.0067874921861343284,-40.171860256807584,43.50190326288718,4.619795751693148,-1653922.3534528383,5082384.580775581,3595334.7677006316,-146.94853533456484,-4617.719834917866,6457.158777803871,0.9950722711063434,-5.075836102481678e-05,0.00047332294456477593,0.09915114050903674
1.52,9.529889600770557e-06,0.0005818559079654012,-0.0067771249048382935,-40.161276044055505,43.479122339196174,4.628862429906517,-1653923.0875652556,5082361.492176759,3595367.0538868858,-146.69643154814634,-4617.719693958214,6457.315723885132,0.9950739527294372,-5.09413656022836e-05,0.00047479107269186876,0.09913425531988596
1.5250000000000001,-1.2507024462734099e-05,0.0005952918206604505,-0.006785794911828311,-40.146468909946755,43.453913356602385,4.623836553148134,-1653923.8204174144,5082338.403578794,3595399.340857742,-146.44443201290312,-4617.719492179353,6457.472618458108,0.995075631509202,-5.106990715898121e-05,0.0004762400455250741,0.0991173958689721
1.53,-5.205063037006649e-06,0.0005842180856843587,-0.006752740625473413,-40.134843379749285,43.4318812958956,4.630779962497976,-1653924.5520098493,5082315.314981843,3595431.628612827,-146.19254190425198,-4617.719288122981,6457.629415674074,0.9950773121303612,-5.1256609345563704e-05,0.0004777169808828548,0.09910051484559458
1.5350000000000001,6.553013253913411e-06,0.0005930875895634404,-0.006794396978574595,-40.11308900556742,43.39550743026944,4.619912490175303,-1653925.2823430956,5082292.226386034,3595463.9171517645,-145.94075664618853,-4617.71903545249,6457.786159325322,0.99507898428929,-5.1422363468381156e-05,0.000479168181352667,0.099083716015244
1.54,1.3978316781285662e-05,0.000592352009897507,-0.006771444320354351,-40.1061751624302,43.371271642933934,4.60869126650316,-1653926.0114177982,5082269.137791465,3595496.206474037,-145.68912439843496,-4617.718791989381,6457.94274952862,0.9950806664702664,-5.156111399931622e-05,0.0004806443535558701,0.09906681351263624
1.545,-1.9251501625684553e-06,0.0005860362785413826,-0.006763831428564853,-40.088954647745354,43.34673842023117,4.610350421190567,-1653926.7392345003,5082246.049198094,3595528.496578967,-145.43755642949984,-4617.718556768967,6458.099222576808,0.9950823426801451,-5.1681182816372794e-05,0.00048212053767860726,0.09904996807186273
1.55,-1.6872365687700468e-06,0.0005814433836323797,-0.006758091767067272,-40.070737209060766,43.322555241261,4.604208399004525,-1653927.4657936816,5082222.960605953,3595560.7874660776,-145.18611608756459,-4617.718299376531,6458.255621655712,0.9950840167234316,-5.183924165804961e-05,0.0004835770728692849,0.09903314156114053
1.555,-1.808860542222647e-05,0.0005860634731951196,-0.006751079214999894,-40.05578843244184,43.28493808090388,4.602120177685515,-1653928.1910959648,5082199.872015071,3595593.0791349495,-144.93479718071947,-4617.718053400062,6458.411927155487,0.9950856890648537,-5.1995564563818376e-05,0.0004850222417771677,0.09901632930083568
1.56,1.257368578690846e-06,0.0005870611005368618,-0.00674914150873784,-40.037607125579534,43.26202017646333,4.600229559457087,-1653928.9151419932,5082176.783425525,3595625.3715850003,-144.68361419917179,-4617.717765249638,6458.568093143443,0.9950873593767771,-5.2193824530898304e-05,0.00048647484491142975,0.09899953447659758
1.565,1.7505924244298214e-05,0.0005866045303314441,-0.006751714876441769,-40.02153858271087,43.22210852671313,4.6073336756864265,-1653929.637932418,5082153.694837425,3595657.6648156894,-144.43255567216,-4617.717474593765,6458.724182520679,0.9950890289249146,-5.234420170251486e-05,0.00048793471808089594,0.09898274442076294
1.57,-6.5501843570374205e-06,0.0005951213443954513,-0.006742114896746764,-40.00497175059823,43.20471692257705,4.592176130187496,-1653930.359467942,5082130.606250982,3595689.95882652,-144.18165398799943,-4617.717102518626,6458.88014966445,0.995090698826987,-5.245404711810259e-05,0.0004893974757701667,0.09896594791493894
1.575,-2.0412037851795195e-05,0.0005775055819965577,-0.006737860019548041,-39.99536436333352,43.16653082536831,4.586541453047384,-1653931.0797491835,5082107.517666252,3595722.2536169547,-143.93084259858895,-4617.716789597444,6459.036024243169,0.9950923660550255,-5.2625832984364995e-05,0.0004908754702451985,0.09894917529118441
1.58,1.7171128213230443e-05,0.0005759402416776843,-0.006735839851765113,-39.97362653181325,43.1412924037022,4.59038080626313,-1653931.798776639,5082084.429083187,3595754.549186372,-143.68013956476574,-4617.716436209939,6459.1917426969985,0.9950940319656488,-5.2827740512619046e-05,0.0004923062128154553,0.09893241324344158
1.585,6.64540319504583e-06,0.0005796131352486742,-0.006728323063545237,-39.958552502727436,43.11732785142238,4.581213755833443,-1653932.5165509589,5082061.340501948,3595786.845534214,-143.42958842527597,-4617.716059632037,6459.347393982882,0.9950956970991756,-5.293576142156156e-05,0.0004937423568431044,0.09891565614702287
1.59,-2.266562349298065e-05,0.0005821107098729815,-0.006736328394925574,-39.94297265265604,43.08945326855629,4.58121566725335,-1653933.2330727805,5082038.251922548,3595819.1426600525,-143.1791402694556,-4617.71570039606,6459.502941490613,0.9950973600840117,-5.307086656274672e-05,0.0004951850360286364,0.09889891773469472
1.595,-4.548542800679288e-06,0.0005884530046333063,-0.006725377274479454,-39.920671371577626,43.057251260193205,4.582412123401341,-1653933.9483426716,5082015.163345011,3595851.4405633947,-142.92881611440805,-4617.715314396666,6459.658395368055,0.9950990247571759,-5.32795174309653e-05,0.0004966266802634568,0.09888215941488643
1.6,-9.837154769896515e-07,0.0005956599509181459,-0.006722923786659092,-39.9107554605589,43.02413665356471,4.575760379292062,-1653934.6623613504,5081992.074769473,3595883.73924375,-142.6786553870068,-4617.71490071239,6459.813746821457,0.9951006864338057,-5.344465181362353e-05,0.0004980885824837453,0.0988654282871523
1.605,1.3965671045157366e-05,0.0005870209611666094,-0.006724125773670188,-39.89763052225193,42.99032360971679,4.575053130673054,-1653935.3751294739,5081968.986196064,3595916.0387005173,-142.42859399730042,-4617.7144628355145,6459.968960118644,0.9951023472121402,-5.360269601522332e-05,0.0004995692950784387,0.0988487032295299
1.61,-1.8007477238732764e-05,0.000568528692124491,-0.006704752547074689,-39.878485859115344,42.97190354199125,4.5678829336554285,-1653936.086647597,5081945.897624952,3595948.338933047,-142.17865523707238,-4617.713982270725,6460.124051653248,0.9951040080169766,-5.372141639637453e-05,0.0005010322099910509,0.09883197513599985
1.615,9.358681082041907e-07,0.0005854231976532767,-0.0067094950906061305,-39.85421416116598,42.92963107048095,4.570415862191576,-1653936.796916311,5081922.809056165,3595980.639940853,-141.92883039027222,-4617.713532217454,6460.279070798667,0.995105663771474,-5.391508494707678e-05,0.0005024412231122415,0.09881529525288629
1.62,1.4188677227464173e-05,0.0005880487924602553,-0.006712606636208719,-39.850622261243124,42.90426861635747,4.563490941026137,-1653937.5059363805,5081899.72048976,3596012.9417234096,-141.6791974373383,-4617.713029990986,6460.433951863887,0.9951073203970378,-5.406580645289487e-05,0.0005038969447278866,0.09879860351738232
1.625,1.7252358383888574e-06,0.0005544689110745549,-0.0067197475481994865,-39.82895964892735,42.87806846719935,4.546531535039829,-1653938.213708427,5081876.631925911,3596045.24428009,-141.4296212107874,-4617.712509550558,6460.588720341053,0.9951089775073729,-5.418421045745704e-05,0.0005053624710491494,0.0987819039960005
1.6300000000000001,-1.719907840933358e-05,0.0005884489879974648,-0.006682867339848213,-39.814685581892626,42.8505501396593,4.549389165189703,-1653938.9202329088,5081853.543364524,3596077.5476102894,-141.18017146537719,-4617.712045384743,6460.743359444596,0.9951106361393548,-5.4325336962992074e-05,0.0005067413792498491,0.09876518670189946
1.635,-4.4335087202649505e-06,0.0005945547071195575,-0.00671270825148534,-39.78397862916401,42.81706927174482,4.554828317781788,-1653939.6255104446,5081830.454805557,3596109.851713471,-140.93084282274438,-4617.711541324652,6460.897913216185,0.9951122853381814,-5.45218863189335e-05,0.0005082001544974361,0.09874856114895414
1.6400000000000001,-1.224524777845368e-05,0.0005837806413586601,-0.006695635982431798,-39.776270376574416,42.79069996537483,4.550743606428906,-1653940.3295418592,5081807.366249186,3596142.1565891993,-140.68172300963766,-4617.7110069653645,6461.052377950405,0.9951139416166731,-5.468822296170505e-05,0.0005096772666783387,0.09873186131341048
1.645,1.3132894713125878e-06,0.000584120049286089,-0.006707365736212445,-39.7587940660504,42.76396607110767,4.53854449118296,-1653941.0323278762,5081784.277695545,3596174.4622369874,-140.43268383297575,-4617.7104492657045,6461.206737275869,0.9951155934121834,-5.4871312402846393e-05,0.0005111256493226308,0.09871520393347662
1.6500000000000001,-6.7869038236721894e-06,0.0005683696507825603,-0.006676897805798045,-39.74691293611245,42.72543464219186,4.542226610033297,-1653941.7338689843,5081761.189144624,3596206.768656268,-140.18375936091206,-4617.70991929405,6461.3609749122725,0.9951172478224437,-5.502076979912102e-05,0.0005125782206730247,0.09869851732710005
1.655,8.558820843606965e-06,0.0005876406852091658,-0.0066931332567240435,-39.72681275952152,42.703576450441645,4.53609182607091,-1653942.4341657974,5081738.100596536,3596239.075846412,-139.93496589830625,-4617.70931586583,6461.515082798951,0.9951188944533197,-5.5186453389587575e-05,0.0005139896136441085,0.09868190650334642
1.6600000000000001,-1.4529325328114416e-05,0.0005717920485537296,-0.006678164556682705,-39.71175445790915,42.66118213990071,4.5400694291616635,-1653943.133218957,5081715.012051415,3596271.3838068885,-139.6862980083921,-4617.708732837538,6461.669107865651,0.9951205447868885,-5.531873503126066e-05,0.0005154527325202138,0.09866525523893628
1.665,3.2092155064414306e-06,0.0005644894286632161,-0.006677551457268784,-39.695504194663684,42.63963645821232,4.528918241336914,-1653943.8310291588,5081691.9235094,3596303.6925371354,-139.4377826364178,-4617.708072739036,6461.822990865087,0.9951221911653702,-5.550452681529093e-05,0.0005168707300669165,0.09864864121785172
1.67,-2.0584095126175276e-05,0.0005790592770646392,-0.0066646139782278934,-39.68279075977867,42.6189596960899,4.527270882844386,-1653944.5275970367,5081668.834970605,3596336.0020365505,-139.18936852661858,-4617.70744566069,6461.976775147769,0.995123837125186,-5.5644386768619306e-05,0.0005182749347632042,0.09863202867243769
1.675,1.1042819756886326e-05,0.0005567939317951879,-0.006660839778346221,-39.666444811350985,42.58300297528258,4.51667479244628,-1653945.2229230842,5081645.746434968,3596368.312304708,-138.94105046103107,-4617.70680892264,6462.130487956638,0.9951254795938645,-5.5847015804123725e-05,0.0005197095211663979,0.09861544831417413
1.68,8.030153567720383e-06,0.0005901092976281956,-0.00669292860154234,-39.643288412085845,42.54734783892552,4.509654617040726,-1653945.9170078614,5081622.657902521,3596400.6233410407,-138.6928604435298,-4617.706169985114,6462.284045080896,0.9951271208872959,-5.596546878069052e-05,0.0005210965131762971,0.09859887727987353
1.685,1.9934433343739372e-06,0.0005551196307429462,-0.006674782326933205,-39.6224397183271,42.515876070633226,4.514638495048875,-1653946.6098520954,5081599.569373272,3596432.935144812,-138.44483311732657,-4617.705529331125,6462.43746326021,0.995128769767388,-5.609967065373111e-05,0.0005225656404967066,0.09858222638601512
1.69,2.8731177260564533e-06,0.0005557335429285875,-0.006654362630098681,-39.61617436413531,42.483056538326245,4.515604798460829,-1653947.3014565934,5081576.480847337,3596465.247715448,-138.19696612404636,-4617.70484459173,6462.59079124192,0.9951304139402,-5.624024366633513e-05,0.000523946234373903,0.09856562062192264
1.695,-8.703356290698443e-06,0.0005666416249520388,-0.0066523163846389,-39.58506635113258,42.45560288269967,4.512508425987909,-1653947.9918219866,5081553.392324979,3596497.561052427,-137.94919115664732,-4617.704098736347,6462.74400044693,0.9951320528024605,-5.637875271590996e-05,0.0005253285750465094,0.09854906562969273
1.7,8.328931861389118e-06,0.0005801537630643245,-0.0066424997568591245,-39.56986652093406,42.435446652239264,4.511464598857596,-1653948.6809489771,5081530.303806305,3596529.875155232,-137.70160501604406,-4617.7033708119525,6462.8971214244875,0.9951336908673439,-5.654874681659465e-05,0.0005267352011895314,0.09853251571438065
1.705,-2.641019686666528e-06,0.0005810605777523501,-0.0066555716791125786,-39.562943820265346,42.39541630140485,4.504034488052361,-1653949.3688383042,5081507.215291286,3596562.190023477,-137.45412588587442,-4617.702637076643,6463.050176680231,0.9951353262218223,-5.667968292745735e-05,0.0005281796401189973,0.09851599016945743
1.71,-1.5396062302438815e-05,0.0005754167567622473,-0.0066388874508160065,-39.53900611683726,42.358477952343264,4.500120882269943,-1653950.0554904784,5081484.126780043,3596594.505656571,-137.20674374141845,-4617.701859962145,6463.203060868561,0.9951369645159688,-5.683815108856002e-05,0.0005296236312683453,0.09849943209063323
1.715,-1.291701469630575e-05,0.0005642559396075329,-0.006628194478325987,-39.52076153582641,42.33664635252142,4.494849306367354,-1653950.7409061727,5081461.0382727245,3596626.8220537486,-136.95953403121783,-4617.701067474077,6463.355810172398,0.9951385984304099,-5.7026939896013645e-05,0.0005310504427927215,0.09848291550982266
1.72,1.1883716770823464e-06,0.0005672807210983831,-0.006659849982773836,-39.5040258149581,42.30312041460553,4.491628046301702,-1653951.425086114,5081437.949769336,3596659.139214468,-136.712442529945,-4617.700288155315,6463.508477555414,0.9951402294516256,-5.72067991269683e-05,0.0005324500996541752,0.09846642550250088
1.725,6.236200017916368e-06,0.0005629622978592184,-0.006627897168903895,-39.490811232253414,42.27681140985016,4.490287052683113,-1653952.1080309353,5081414.861269905,3596691.457138212,-136.46548588776574,-4617.699483886678,6463.661019973805,0.995141867986797,-5.73523529844403e-05,0.0005338607493121948,0.09844985669444206
1.73,-9.658445212976055e-06,0.0005690481891473736,-0.0066434332986922,-39.46710870166173,42.247990198947974,4.486838631684751,-1653952.7897412446,5081391.772774554,3596723.7758244346,-136.21863788109445,-4617.698656715805,6463.813469205371,0.9951434983875517,-5.7484243046404285e-05,0.0005352619021888093,0.09843336734686542
1.735,-1.4142531482266606e-05,0.0005501148353527291,-0.0066061928327788635,-39.44683526411924,42.214616687480955,4.476404506959729,-1653953.4702177078,5081368.684283336,3596756.095272652,-135.9719473609324,-4617.6978305197135,6463.965817593327,0.9951451323252049,-5.765719515126644e-05,0.0005366742821135755,0.09841683934070118
1.74,-1.780236823951856e-05,0.0005840859386973573,-0.006625113402773378,-39.43271042130078,42.17707318548684,4.481952659682966,-1653954.1494610712,5081345.595796221,3596788.4154822566,-135.72539803798463,-4617.697015349684,6464.1180243232875,0.9951467568499714,-5.783659466466325e-05,0.0005380384603968706,0.09840040396526442
1.745,4.529080658408634e-06,0.0005445545219559017,-0.0066242739788821585,-39.41918348609555,42.14440038109243,4.472563264286178,-1653954.8274720418,5081322.507313368,3596820.7364525977,-135.47899021744598,-4617.696126055291,6464.270112115255,0.9951483857087743,-5.80334817245425e-05,0.0005394862510559093,0.09838392149086402
1.75,-8.698029528424619e-07,0.0005747933408641326,-0.0066038032198227166,-39.390761777451345,42.11458749753198,4.471025151561249,-1653955.5042512508,5081299.418834974,3596853.058183024,-135.2326933573256,-4617.695231487643,6464.422058535919,0.9951500141427247,-5.816508673343779e-05,0.0005408411852625876,0.09836744105327651
1.7550000000000001,-1.3901850164690091e-05,0.0005789027363996553,-0.006616417438156017,-39.39038292520716,42.08306558091936,4.467809886095995,-1653956.1797994326,5081276.330361051,3596885.380672944,-134.98657936918582,-4617.694337693459,6464.573909194326,0.9951516372268299,-5.831753208358348e-05,0.0005422700250137881,0.0983510115201948
1.76,8.979608243104427e-06,0.0005448495371458097,-0.006606727781232982,-39.36728588521485,42.04819721523241,4.467870379086406,-1653956.8541171888,5081253.2418917315,3596917.703921791,-134.74052313688966,-4617.69339009014,6464.725629768467,0.9951532631311856,-5.850342708428096e-05,0.0005437058821683727,0.09833455059446831
1.7650000000000001,-3.7691241641539047e-06,0.0005424400857180186,-0.006582532850657235,-39.34780920241929,42.030425812225765,4.461984154079586,-1653957.5272050889,5081230.15342722,3596950.0279289507,-134.49463688688584,-4617.692414415481,6464.877234184421,0.9951548864292573,-5.862401098797265e-05,0.0005450626453044671,0.09831811372229488
1.77,-9.522027450798548e-06,0.000557009625858571,-0.006590821635685853,-39.328801954873875,41.99301834860909,4.453665985528804,-1653958.1990638468,5081207.064967519,3596982.352693967,-134.24886629292953,-4617.691466118579,6465.028772357891,0.9951565035094143,-5.877568708280125e-05,0.0005464102838157042,0.09830173703519987
1.7750000000000001,1.806727911594662e-05,0.0005762608505882356,-0.0066192695152712195,-39.30219088624422,41.965162340215876,4.455531978922226,-1653958.8696941151,5081183.976512582,3597014.678216291,-134.0032410034457,-4617.690508540143,6465.1801572483455,0.9951581223341094,-5.894526760983724e-05,0.0005477927545903924,0.09828533970538633
1.78,-1.1750774493132517e-05,0.0005449964916210286,-0.006583950817135025,-39.29063511306571,41.93212950376729,4.446565093549858,-1653959.5390966958,5081160.888062463,3597047.00449534,-133.75779129898748,-4617.689539079415,6465.331462315429,0.9951597478531835,-5.9050978056144814e-05,0.0005492298951149997,0.09826887153261016
1.7850000000000001,-7.500179904673545e-06,0.0005743396459307574,-0.006600437782137471,-39.270969458313104,41.904109525587515,4.450265034551767,-1653960.2072722863,5081137.799617221,3597079.331530556,-133.51244483423056,-4617.68855775415,6465.482624099845,0.9951613644609381,-5.9223143524630364e-05,0.000550581932657773,0.0982524912477984
1.79,2.9691668132130236e-05,0.000568104169075212,-0.0065630878688659995,-39.256510718183655,41.859114970948895,4.44025222999306,-1653960.874221512,5081114.711176969,3597111.6593213785,-133.26724537705178,-4617.687542767553,6465.633704884217,0.9951629848064032,-5.9391964196730515e-05,0.0005520080146213668,0.0982360699079363
1.795,-4.611053264295339e-06,0.0005634218334137801,-0.0065695380804819325,-39.23419032085934,41.840688560860976,4.440132555188686,-1653961.5399450804,5081091.622741867,3597143.987867124,-133.02218207987468,-4617.686498372559,6465.784593134623,0.9951645957217514,-5.9466672060894636e-05,0.0005534277226431526,0.09821974141400452
1.8,-3.4647986423636683e-06,0.0005541552375285184,-0.006567182075208281,-39.212281997227954,41.803303082873484,4.439077764147942,-1653962.204443675,5081068.534311964,3597176.317167184,-132.7772557536366,-4617.685462815904,6465.935430843768,0.9951662079521548,-5.962558122342737e-05,0.0005548273573080066,0.09820339689400857
1.805,5.835976403748504e-06,0.0005475286217078829,-0.006562268513960366,-39.193599244666274,41.76591905905665,4.427832069727509,-1653962.867718057,5081045.445887319,3597208.6472211056,-132.53249701968562,-4617.684395258149,6466.086137970215,0.9951678193468784,-5.977936028915829e-05,0.0005562042190808953,0.0981870582086743
1.81,1.350670951958469e-05,0.0005799301525297643,-0.006560327368367986,-39.178005950285595,41.73801274613639,4.427535097103252,-1653963.5297689952,5081022.357468007,3597240.978028159,-132.28787826432352,-4617.683329272568,6466.2366833986935,0.9951694292761525,-5.9908366306483914e-05,0.000557566877989553,0.09817073170930994
1.815,1.6115489219359111e-06,0.0005519952053862127,-0.006552041929128202,-39.15376366670667,41.70818622352171,4.422784910497636,-1653964.190597148,5080999.269054091,3597273.309587702,-132.04338283646882,-4617.682237261337,6466.387133777229,0.9951710384152554,-6.002623760901551e-05,0.0005590120321738471,0.0981544099972126
1.82,-7.809573783525819e-07,0.0005569192693526083,-0.006553648452445648,-39.13431056503793,41.66897450808293,4.415082380919681,-1653964.8502032233,5080976.180645623,3597305.6418992262,-131.79904729028448,-4617.681149941572,6466.537475835379,0.9951726452891382,-6.016683676881768e-05,0.0005603847684181403,0.09813810889293854
