t_s,gyro_x_radps,gyro_y_radps,gyro_z_radps,accel_x_mps2,accel_y_mps2,accel_z_mps2,ins_pos_ecef_x_m,ins_pos_ecef_y_m,ins_pos_ecef_z_m,ins_vel_ecef_x_mps,ins_vel_ecef_y_mps,ins_vel_ecef_z_mps,ins_quat_w,ins_quat_x,ins_quat_y,ins_quat_z
0.0,1.539970127031044e-05,0.0006160999286410153,-0.007390997959281447,-45.299358472276715,51.87534706292135,5.136755033561995,-1653639.850072476,5089380.142985015,3585590.067023642,-242.6143302865707,-4938.608152381165,6852.28340073394,0.9945218953682734,0.0,0.0,0.10452846326765354
0.005,2.650089860619121e-05,0.000618341028966784,-0.007394540214293483,-45.30691306667281,51.86254836379149,5.148695412980167,-1653641.0624163381,5089355.449932986,3585624.328904785,-242.32321456288688,-4938.612659435504,6852.469056506716,0.9945238266214658,-1.227115966534343e-07,1.535836439604279e-06,0.10451008697643879
0.01,2.513273175910082e-06,0.0005939515760681724,-0.00739149264187258,-45.310176402192916,51.86486556999773,5.138995747889256,-1653642.2733046485,5089330.756858632,3585658.5917141666,-242.03210957796858,-4938.6170818841165,6852.6546961136855,0.9945257584580747,-2.184077377070616e-07,3.0801454145203516e-06,0.10449170184209029
0.015,5.060164044145931e-06,0.0006005962846206029,-0.007413364108400797,-45.322046965499986,51.86887857490372,5.142995447698536,-1653643.4827373703,5089306.063762057,3585692.855451717,-241.74097909042533,-4938.6215483480055,6852.840324050728,0.9945276891567221,-3.6737339504948596e-07,4.557548272678466e-06,0.10447332424922795
0.02,2.1347688795935955e-05,0.0006104428149026805,-0.007402103968940314,-45.31584629674135,51.854254276742054,5.140974152421221,-1653644.6907143155,5089281.370643209,3585727.120117472,-241.4497990282564,-4938.625990965601,6853.025978049453,0.9945296252249392,-5.117424047208232e-07,6.052137181169563e-06,0.10445489224087037
0.025,7.881185773534373e-06,0.0006029677636596348,-0.007387526363749107,-45.31843791607815,51.859697715657205,5.138249118020054,-1653645.8972355048,5089256.67750216,3585761.3857113705,-241.15867667796005,-4938.6304282930705,6853.211581303651,0.994531558009216,-6.181864747796298e-07,7.575461046260398e-06,0.1044364881925454
0.03,6.3204542006406176e-06,0.0006073934204197224,-0.007403744282317667,-45.3328954468472,51.85712416938096,5.141882232459093,-1653647.1023010341,5089231.984338863,3585795.652233338,-240.86753503297186,-4938.6348906756275,6853.397205645677,0.9945334866453373,-7.561607538680466e-07,9.076683509668817e-06,0.1044181203532742
0.035,1.0145016641678673e-05,0.0006054611000053365,-0.007375145009368382,-45.33899872024768,51.8536206152962,5.145596865634751,-1653648.3059107312,5089207.29115336,3585829.9196834173,-240.57634384884062,-4938.639310285572,6853.582826101371,0.9945354191727116,-8.991711971463834e-07,1.05885021772712e-05,0.10439971215493826
0.04,4.987542929298429e-07,0.0006036590258081349,-0.007400113736376172,-45.33915608278568,51.84329403000069,5.149692380327698,-1653649.5080644467,5089182.59794583,3585864.188061598,-240.28514230717778,-4938.643701938085,6853.768446342983,0.9945373438940591,-1.0321673917906382e-06,1.209651471083777e-05,0.10438137502811111
0.045,9.353607034692134e-06,0.0006051066203629645,-0.007390912690223604,-45.34256607230289,51.838987895349135,5.137843006159324,-1653650.7087622273,5089157.904716423,3585898.4573678263,-239.99396996846292,-4938.648060810328,6853.954044855759,0.9945392747895948,-1.1886780040475312e-06,1.359752937528683e-05,0.10436297578490801
0.05,1.4653768225804297e-05,0.0005913549686741274,-0.0074239431988190425,-45.34726855215042,51.829756621203686,5.14408245344125,-1653651.9080041044,5089133.211465129,3585932.727601935,-239.70278083957734,-4938.652456815249,6854.139598692231,0.9945412029422468,-1.323549744245415e-06,1.5104453583451926e-05,0.10434459938249074
0.055,6.853373659071236e-06,0.0006151783446644813,-0.007389200913210548,-45.3580257259151,51.827881020933475,5.1354124190589285,-1653653.1057900598,5089108.518191976,3585966.9987637755,-239.41160133196124,-4938.656804722531,6854.325137342027,0.9945431393685308,-1.4416573830733634e-06,1.657856882456854e-05,0.1043261408183971
0.06,-7.639460547774234e-06,0.0006151536258460251,-0.007401288380762594,-45.35709586567817,51.832887416820235,5.1337615923491215,-1653654.3021199927,5089083.824897044,3586001.2708532284,-239.12037180856487,-4938.6611676310895,6854.510643770409,0.9945450663892248,-1.5853716559051306e-06,1.81098831603914e-05,0.10430776860028866
0.065,-6.473693429718996e-06,0.0005855178681561262,-0.0073934218108948355,-45.358843113172846,51.82940232724715,5.145971498437622,-1653655.4969937745,5089059.131580231,3586035.5438702763,-238.82914090443467,-4938.665557632256,6854.696175533606,0.9945469962196058,-1.7651144714304619e-06,1.963735669413403e-05,0.10428936629310824
0.07,-7.633185254798946e-06,0.0006100098353881395,-0.007378856064514609,-45.363426745518034,51.81456162707415,5.141823518896155,-1653656.6904114515,5089034.438241599,3586069.817815052,-238.53792996220196,-4938.669895222282,6854.881734655876,0.9945489236580655,-1.934231638714413e-06,2.1091448814141398e-05,0.10427098350928225
0.075,-3.6830689588747417e-06,0.0005780769077754928,-0.007414725649170388,-45.38126796043641,51.82074431763012,5.144121570567074,-1653657.8823730918,5089009.744881328,3586104.092687456,-238.24672611882312,-4938.674213150588,6855.067226887227,0.9945508469569333,-2.112615469449115e-06,2.2606134893080264e-05,0.10425263690548119
0.08,1.4775295165256355e-07,0.0006023074224892365,-0.00740072978672871,-45.378046536644774,51.820751249140116,5.138084815302752,-1653659.0728785067,5088985.051499529,3586138.3684873832,-237.95543982844907,-4938.678506570048,6855.252744107023,0.9945527792640866,-2.272857118100178e-06,2.4042452999388565e-05,0.10423420108043127
0.085,9.384054505843981e-06,0.0006088201413900471,-0.007372388488985405,-45.38121756537139,51.807955314214716,5.140988762510145,-1653660.261927521,5088960.358096167,3586172.6452148836,-237.66416594514516,-4938.682837768006,6855.438256095063,0.9945547075794228,-2.4298871591438066e-06,2.554001574795399e-05,0.10421580001809733
0.09,6.267112198086539e-06,0.0006178039112602888,-0.007377943480110205,-45.376768893976234,51.7973831681361,5.143131291638916,-1653661.4495202128,5088935.664671251,3586206.92286985,-237.37291077454114,-4938.687129067079,6855.623730441063,0.9945566281689399,-2.5656471923059328e-06,2.7056178219411586e-05,0.10419746938678438
0.095,3.0396609524448612e-05,0.0006002902021898563,-0.007388046832814112,-45.38698732683724,51.80200456913665,5.135365344091215,-1653662.6356567482,5088910.971224918,3586241.2014521277,-237.08170333271534,-4938.6914042134995,6855.809180556711,0.9945585498644244,-2.711497754629882e-06,2.8593865871898225e-05,0.10417912490807395
0.1,-6.986226339341062e-06,0.0006281690748670641,-0.0073847819506136225,-45.37887018362785,51.79546542181962,5.128322302881757,-1653663.8203371002,5088886.277757141,3586275.4809616483,-236.79043750981225,-4938.695706672171,6855.994627762374,0.994560473851586,-2.79279213640408e-06,3.0094291898138168e-05,0.1041607552710842
0.105,2.2850071595009674e-06,0.0005954042791813642,-0.007383787314551973,-45.38928586755715,51.7852469212724,5.133868419396007,-1653665.0035612357,5088861.584267759,3586309.7613983294,-236.49921668647485,-4938.700045955602,6856.180044582944,0.9945623966447186,-2.974294710064329e-06,3.1654301437842825e-05,0.10414239371875503
0.11,1.6625916427286857e-06,0.0006153496986618898,-0.007408023943352101,-45.394199301670426,51.77777126002521,5.137697497745881,-1653666.1853292296,5088836.89075683,3586344.042762029,-236.2079808216891,-4938.704325825331,6856.365435374673,0.9945643188402805,-3.1242146428650617e-06,3.3135258210903146e-05,0.10412403460326958
0.115,6.40555674305414e-06,0.0006018106703122359,-0.007412736674694191,-45.39790034977169,51.78295549292113,5.144986407980551,-1653667.3656410498,5088812.197224588,3586378.3250526455,-235.916747293347,-4938.708570673278,6856.550811168123,0.9945662470009314,-3.280876156757059e-06,3.466564526856801e-05,0.10410561518962866
0.12,-6.977474672867288e-06,0.0006089636226366684,-0.007402052985934646,-45.40242896950296,51.77327234861069,5.141692555226267,-1653668.544496675,5088787.503671166,3586412.6082702586,-235.62550281331139,-4938.7127982536,6856.736234058932,0.9945681760457007,-3.422221373310625e-06,3.616360304731176e-05,0.10408718402190778
0.125,1.964762494257854e-05,0.0006118928170772897,-0.007391359907555223,-45.40953193359442,51.76875606873551,5.127656016794106,-1653669.7218960754,5088762.810096634,3586446.892414877,-235.33425732677603,-4938.717014669669,6856.921613455352,0.9945701019662706,-3.5987027923382913e-06,3.767586364670567e-05,0.10406877938354417
0.13,4.001619764966756e-06,0.0005889423351152157,-0.0073976410750731586,-45.39831218369884,51.7655717913149,5.1380199405246225,-1653670.897839159,5088738.116500925,3586481.177486256,-235.04297608634133,-4938.721268746956,6857.106938050552,0.9945720247623587,-3.7097439770561642e-06,3.920233465642181e-05,0.10405040129435814
0.135,-1.2645546206417854e-05,0.0005991713704262295,-0.0073953238528534655,-45.40359208688241,51.75451327606891,5.136195881800505,-1653672.0723260238,5088713.42288399,3586515.463484344,-234.75176988474647,-4938.72550507921,6857.292297194283,0.9945739488523164,-3.8537184565585785e-06,4.066767089330841e-05,0.10403200755344169
0.14,-1.8972732020227462e-06,0.0005887490162406068,-0.007394226673453748,-45.40679322002949,51.75287789114997,5.129043195783501,-1653673.2453568578,5088688.729245928,3586549.750409114,-234.46056369013547,-4938.7297197602875,6857.477610703931,0.9945758719961468,-4.041745160781643e-06,4.2154111373400136e-05,0.10401361953994058
0.145,-3.5964395555023045e-06,0.0005908817652476863,-0.00740430177048215,-45.41499188003449,51.747895095046694,5.126054980891134,-1653674.4169316238,5088664.03558673,3586584.0382604,-234.1693427299537,-4938.733959591734,6857.662903672756,0.9945777945137734,-4.200336648521734e-06,4.3617432212023386e-05,0.10399523421770474
0.15,-6.304197464266179e-06,0.000607006332600827,-0.007389440591352834,-45.42506919066681,51.738772162795435,5.131953709553866,-1653675.587050221,5088639.341906356,3586618.3270380837,-233.8780961041056,-4938.738190208772,6857.848169884352,0.9945797193080654,-4.363708605594652e-06,4.508561412883045e-05,0.10397682380865081
0.155,1.7274502165743366e-06,0.0006117432008170188,-0.007400707458527822,-45.42328743944007,51.74296418459468,5.128703564663432,-1653676.755712547,5088614.648204972,3586652.616742048,-233.58683437232386,-4938.742363267176,6858.0334158001015,0.994581639895127,-4.538003042101954e-06,4.6593185251254e-05,0.10395845031550545
0.16,2.1927766379788212e-05,0.0006179023263034777,-0.007374729214617241,-45.431109585876555,51.72768468551795,5.130945938510868,-1653677.9229185693,5088589.954482639,3586686.9073722875,-233.29557450776792,-4938.746569645851,6858.218679996034,0.994583563067692,-4.69355955983989e-06,4.811462162933119e-05,0.10394004877104894
0.165,-4.770877212844086e-06,0.0005961333646697024,-0.0074150771611740315,-45.43456154203709,51.72890197349265,5.1289926004878374,-1653679.088668296,5088565.260739407,3586721.1989287143,-233.00431620172373,-4938.750723452184,6858.403890652415,0.9945854791476837,-4.800486144586487e-06,4.965662176275529e-05,0.10392171178222502
0.17,-5.440021431727568e-06,0.000612099312749778,-0.0073936165192896135,-45.42386363758446,51.727019208861286,5.13080975343184,-1653680.2529616952,5088540.566975378,3586755.4914112072,-232.71304345295937,-4938.754887831437,6858.589106674798,0.994587405370403,-4.968147275203596e-06,5.1137557240169306e-05,0.10390327443751432
0.17500000000000002,4.621987864750492e-06,0.0006101198735385087,-0.007386903127262392,-45.43407467696992,51.712356184633045,5.120295106732144,-1653681.415798879,5088515.873190484,3586789.7848198195,-232.4218300768056,-4938.759070107803,6858.774338167616,0.9945893256734281,-5.1416167522500905e-06,5.265801797799025e-05,0.10388489041806134
0.18,-1.00652204632851e-05,0.0006143175813815969,-0.007383435416230336,-45.430427451728804,51.710429921067366,5.1260580714555,-1653682.5771799295,5088491.179384692,3586824.079154367,-232.13059007921132,-4938.7632465802035,6858.959480895066,0.9945912438914687,-5.289552341582577e-06,5.417617018806383e-05,0.10386652305427578
0.185,-1.9748489642329303e-07,0.0005884298859393621,-0.007394925656963489,-45.43449593677401,51.698073212489405,5.134585799056506,-1653683.7371048622,5088466.485558049,3586858.374414679,-231.83938303213662,-4938.767410705465,6859.144643891113,0.9945931608669326,-5.47509688472269e-06,5.5700946160906756e-05,0.10384816427916214
0.19,-5.309150662441051e-06,0.0006228348198120201,-0.0073878139095631965,-45.439791057915954,51.692761506159485,5.126801924874625,-1653684.8955738123,5088441.791710742,3586892.6706007537,-231.54819701510442,-4938.771511878171,6859.329785966351,0.994595080487583,-5.629386096060277e-06,5.716391451081867e-05,0.10382977689706857
0.195,-1.7420182452202387e-05,0.0005884001715881865,-0.007398377627905331,-45.43254540346317,51.68830301547492,5.12513810235638,-1653686.052586787,5088417.097842893,3586926.9677124415,-231.25699276040257,-4938.775627974661,6859.51488903853,0.9945969979153283,-5.805315024771278e-06,5.87111035282994e-05,0.1038114071628026
0.2,-1.7744639458689255e-05,0.0006169415831409582,-0.007396993143359613,-45.439243122745,51.680264495917385,5.125354526620694,-1653687.2081438503,5088392.4039544165,3586961.265749625,-230.96583266624617,-4938.779762636885,6859.69998442317,0.9945989177474892,-6.0024227184159516e-06,6.016952771977804e-05,0.10379301112850622
0.20500000000000002,2.021623599711675e-05,0.0005989863604566322,-0.00736916838001203,-45.44454247732076,51.678556222724886,5.129257688647134,-1653688.3622450903,5088367.71004533,3586995.5647122134,-230.67466328595503,-4938.783871590361,6859.885050907996,0.9946008368736527,-6.207742960797841e-06,6.169883586300174e-05,0.10377461850061045
0.21,2.271359184660742e-05,0.0006103969309113632,-0.007387762446528873,-45.447545282659284,51.66488708928987,5.124611917358213,-1653689.5148904587,5088343.016115758,3587029.864600155,-230.38348404267387,-4938.787957609966,6860.0701256907005,0.9946027484432656,-6.314010871923499e-06,6.319334715654169e-05,0.10375629501787552
0.215,2.679022093416597e-05,0.0006180714953501029,-0.007392712393373911,-45.44965221777834,51.66384156927807,5.124319529351399,-1653690.666079959,5088318.322165784,3587064.165413315,-230.0923160930651,-4938.792031768749,6860.2551383005075,0.9946046644935427,-6.417031822340772e-06,6.471687838772694e-05,0.10373792526475004
0.22,2.6914610718944858e-06,0.0006263272969487783,-0.0073847275350113085,-45.448456009441024,51.651785929290405,5.119150538546824,-1653691.815813614,5088293.628195436,3587098.4671515427,-229.8011459799443,-4938.796107577785,6860.440152906908,0.9946065814845314,-6.511907344134464e-06,6.626054966383764e-05,0.10371954316708562
0.225,-5.443570819811069e-06,0.0005901567126323368,-0.0073784077242576955,-45.46030102347326,51.650481857756645,5.128651933668715,-1653692.964091485,5088268.934204702,3587132.76981471,-229.51000235216003,-4938.800185925605,6860.625114054773,0.9946084960615195,-6.668844223661066e-06,6.781850045278039e-05,0.10370118089211947
0.23,-7.829975242945722e-06,0.0006161628157811872,-0.007403810192946927,-45.45082619372265,51.63207410872566,5.127540047048489,-1653694.1109135558,5088244.240193721,3587167.0734027335,-229.21882600474737,-4938.8042066606195,6860.810095205964,0.9946104086650618,-6.836630628380924e-06,6.928440336663878e-05,0.10368283429792403
0.23500000000000001,7.718957274072675e-07,0.0006272744066355231,-0.007380267939634205,-45.46164796530167,51.63199880956986,5.118950206829082,-1653695.2562799456,5088219.546162662,3587201.37791551,-228.92772994621708,-4938.808216539523,6860.9950154974795,0.994612327506707,-7.017096253738158e-06,7.081435210175096e-05,0.1036644245041619
0.24,-2.587179504605948e-06,0.0005827621096225657,-0.007388264140798982,-45.45746731335775,51.612415289657044,5.120103321048776,-1653696.4001907215,5088194.852111508,3587235.6833528266,-228.63658031966153,-4938.812245076253,6861.179911077602,0.9946142399032224,-7.179048583302277e-06,7.237415980862335e-05,0.10364607321156698
0.245,-5.002043395392859e-06,0.0006128012240573135,-0.00740556387279111,-45.461294406705555,51.60953375375574,5.12015708332063,-1653697.542645903,5088170.158040295,3587269.9897144614,-228.34549235263614,-4938.816240192059,6861.36474286496,0.9946161540384292,-7.337821005179399e-06,7.382241554863465e-05,0.1036277020019802
0.25,-1.8678390327004494e-07,0.0006284281710210373,-0.007377830776583965,-45.463251540944626,51.60475953975472,5.121227724565986,-1653698.6836456298,5088145.463949125,3587304.29700024,-228.05439829104557,-4938.820227904553,6861.549568667419,0.9946180723075295,-7.510383484946844e-06,7.534473880004778e-05,0.1036092877401372
0.255,-6.192965797919321e-06,0.0005939748692565487,-0.007393382529373845,-45.46023892107176,51.60387737528934,5.117500877833091,-1653699.8231899035,5088120.769838046,3587338.605210125,-227.7633112842326,-4938.824203731839,6861.734385286783,0.9946199830482204,-7.675015120087786e-06,7.690716691994714e-05,0.10359094240106013
0.26,1.552619812897785e-05,0.0006012876138309565,-0.0073722420611890506,-45.456537808358426,51.585056034459306,5.125950752082796,-1653700.9612787827,5088096.075707022,3587372.914344087,-227.4722403050215,-4938.828205665865,6861.919199320447,0.9946218974815617,-7.845661789031557e-06,7.83823693939037e-05,0.10357255835803032
0.265,4.888993954342508e-06,0.0005987694153405307,-0.007383884377499804,-45.46522550894928,51.59057875805385,5.120759239356053,-1653702.0979124752,5088071.381556143,3587407.2244020165,-227.18123677883102,-4938.832146207722,6862.103972627616,0.9946238060989133,-7.964191921761446e-06,7.988137956877839e-05,0.10355422684201794
0.27,-6.7026482463613204e-06,0.000591464189720432,-0.0073868188183173365,-45.466683478205354,51.57817083936533,5.113523794819969,-1653703.2330910256,5088046.687385504,3587441.5353838364,-226.89018334249042,-4938.836109148357,6862.288755230571,0.9946257173899499,-8.10852249278408e-06,8.137137401543881e-05,0.10353586634340284
0.275,5.848957948528116e-06,0.000616835804730609,-0.0073499252006105934,-45.47102560290656,51.56922406110431,5.114006160731716,-1653704.36681434,5088021.99319504,3587475.8472894114,-226.59914245629028,-4938.840076516429,6862.473474858742,0.9946276291005209,-8.279786139413807e-06,8.284020308471933e-05,0.10351749851509391
0.28,-3.973973821295037e-05,0.0005934891055671808,-0.0073657966186737684,-45.468090645535824,51.56353167600042,5.1101662840031485,-1653705.4990824582,5087997.2989847995,3587510.16011851,-226.3081047799119,-4938.844019871686,6862.658164661773,0.9946295309184798,-8.426397722047128e-06,8.43753694397752e-05,0.10349922238682599
0.28500000000000003,-1.3371619227768902e-06,0.0006064913516171747,-0.007402664405908942,-45.47075766654334,51.555252295151554,5.119948336686342,-1653706.6298954487,5087972.604754803,3587544.4738710015,-226.01709138760464,-4938.847978602729,6862.8428319452305,0.9946314365082728,-8.680331395369266e-06,8.584068615414471e-05,0.10348090676795565
0.29,-2.9029289895196935e-06,0.0006137464259212283,-0.007393789930831631,-45.469661997099195,51.54201750605688,5.112259634400727,-1653707.7592534255,5087947.910505152,3587578.7885468304,-225.72609937130113,-4938.85188164717,6863.027499499271,0.9946333512926804,-8.842145664084286e-06,8.734826797921024e-05,0.10346249943041234
0.295,1.7550526051919998e-05,0.0006008555540969268,-0.0073832396346384605,-45.46301282874423,51.53011267291219,5.113681037847622,-1653708.8871565047,5087923.216235963,3587613.1041458333,-225.43513226231818,-4938.855794291528,6863.212101655098,0.9946352634374662,-9.009727972494546e-06,8.887348532210099e-05,0.10344411412453897
0.3,-2.3439848316517517e-07,0.0005920548610075196,-0.007371686773744252,-45.47198261928298,51.522228822874,5.122082609075953,-1653710.0136048957,5087898.5219472395,3587647.420667772,-225.1442241578761,-4938.859695085949,6863.396674007052,0.9946371725155095,-9.123114902559342e-06,9.037193805671605e-05,0.10342575501312055
0.305,2.5932222819123322e-05,0.0006106362290246015,-0.0073747338007095885,-45.47846977318514,51.52796468929321,5.107383657357165,-1653711.1385987229,5087873.827639168,3587681.738112555,-224.85330675952974,-4938.863533502878,6863.581239060099,0.9946390782674202,-9.278447541176163e-06,9.184390873453889e-05,0.10340742459777101
0.31,-1.3153268778343833e-05,0.0006106141486243141,-0.007372973543429175,-45.47406610803742,51.522605410319976,5.114936681915502,-1653712.2621378317,5087849.133311742,3587716.0564801265,-224.56233670889267,-4938.867436844278,6863.765789559155,0.9946409844631787,-9.37351864454724e-06,9.336884825445712e-05,0.10338908656388271
0.315,1.099100989051166e-05,0.0006247164935299432,-0.007382324093051325,-45.486526068854346,51.496480495375806,5.11290911281095,-1653713.3842222022,5087824.438964863,3587750.3757704804,-224.2714115250749,-4938.871314440604,6863.950352028295,0.994642889862713,-9.565773706244152e-06,9.488363034531439e-05,0.10337075288080189
0.32,-1.376522321011324e-06,0.0006215426139129102,-0.007378636954112878,-45.47148845545369,51.50341447339591,5.112138921412377,-1653714.5048519343,5087799.744598772,3587784.6959833633,-223.98048129755568,-4938.875121923333,6864.134801047569,0.9946447973351765,-9.701638069954413e-06,9.64397187034379e-05,0.10335239590510044
0.325,-4.350115012942008e-06,0.0005936890162453672,-0.007355608948996618,-45.47600494371925,51.47973819480743,5.115801423117,-1653715.6240271637,5087775.050213502,3587819.01711861,-223.68961045021976,-4938.87898646621,6864.3192976971495,0.9946467035143808,-9.867434725138898e-06,9.798471937558874e-05,0.10333404806550485
0.33,-2.0353890033619715e-05,0.0006055501131395462,-0.007374380324743623,-45.466520588099684,51.471159598813664,5.114580479688584,-1653716.741748122,5087750.355809084,3587853.3391761384,-223.3987729433251,-4938.882780399837,6864.503713526222,0.9946486034116954,-1.0033424358893222e-05,9.945969117617037e-05,0.10331575745385706
0.335,1.8476868198943917e-06,0.0005951526261559292,-0.007384220256396222,-45.4727973585958,51.45384197632695,5.1158673359567715,-1653717.8580150486,5087725.6613856675,3587887.662155692,-223.1079976253198,-4938.886586302401,6864.688108000116,0.9946505078146639,-1.0242277583414858e-05,0.00010096002292526098,0.1032974201333259
0.34,-3.743961263075563e-05,0.0006058061635762816,-0.007358334158322654,-45.47949767695231,51.44869234486263,5.104621624344405,-1653718.9728281253,5087700.966943347,3587921.9860570603,-222.81723310423408,-4938.890341887621,6864.8724392784325,0.9946524144211646,-1.0393241179845172e-05,0.00010244023313756496,0.1032790583038359
0.34500000000000003,-7.694240937322735e-06,0.0006067732094129633,-0.007351534886511191,-45.48237578381936,51.437379501440994,5.107782675762943,-1653720.0861873063,5087676.272482184,3587956.3108799616,-222.5264392477361,-4938.894123482029,6865.056721339247,0.9946543140001571,-1.0644641879680853e-05,0.00010393679151601837,0.10326076081799873
0.35000000000000003,2.2923245317071904e-05,0.0006045901268898297,-0.007367986041730991,-45.47699755804441,51.44114177174205,5.109127450860247,-1653721.1980925614,5087651.578002205,3587990.6366241965,-222.2356628319217,-4938.8978680894925,6865.2409726701535,0.9946562114858684,-1.0822324548205838e-05,0.00010544343355509151,0.10324248019656973
0.355,-1.165233540899629e-05,0.0006003980275389586,-0.007355063725237392,-45.48032983865537,51.43353531055789,5.100167539640785,-1653722.308543996,5087626.883503449,3588024.9632897694,-221.94491101809962,-4938.9016342773175,6865.4252563848795,0.9946581128801171,-1.092331340036956e-05,0.00010695254913469331,0.10322415862383102
0.36,4.137170981412949e-06,0.0006131073931460246,-0.007360167611914787,-45.48053565051331,51.41511328423675,5.103792170816639,-1653723.4175416545,5087602.188985816,3588059.290876636,-221.65415234597785,-4938.9054187364045,6865.609490174121,0.9946600106006542,-1.1109194183495265e-05,0.00010844231817856637,0.10320586915847252
0.365,1.0379471656370928e-05,0.000599028415951796,-0.00734933313973729,-45.47759231441222,51.401253625764596,5.103004739205229,-1653724.5250856269,5087577.494449385,3588093.619384531,-221.36343662073332,-4938.909153607532,6865.793667968993,0.9946619092962388,-1.125909257287618e-05,0.00010996776471239775,0.10318756696174416
0.37,8.007723840451328e-06,0.0005948755263668912,-0.007351909805297227,-45.47169401856915,51.39994375646236,5.089274348646458,-1653725.6311761283,5087552.799894319,3588127.9488131977,-221.07276398104796,-4938.912873167667,6865.977798642076,0.9946638048623557,-1.1389833594476761e-05,0.00011145981227747384,0.10316929167016559
0.375,-2.856447811512674e-05,0.0005791451165334944,-0.007383836000055555,-45.475749368552314,51.39728630855383,5.099187246311299,-1653726.7358133087,5087528.105320478,3588162.279162443,-220.7821081870857,-4938.916663192349,6866.161899408943,0.9946657007560324,-1.1525401932782713e-05,0.00011294092118005304,0.10315100993700638
0.38,8.769036310341956e-06,0.000616137506178168,-0.007371993753220561,-45.48129015074428,51.38958065985308,5.096366913212631,-1653727.838997223,5087503.410727803,3588196.6104322476,-220.49145744499208,-4938.920406919016,6866.346022449076,0.9946676045465235,-1.174786554957701e-05,0.00011437348172744812,0.1031326487896792
0.385,-1.5181402464374245e-05,0.0006053382579626454,-0.00734904374596311,-45.47584513880872,51.37323297439371,5.098386366821674,-1653728.9407278614,5087478.716116435,3588230.9426225796,-220.2007979782279,-4938.924140030223,6866.530110419917,0.9946695049336062,-1.1887027490745345e-05,0.00011590765617303508,0.1031143170430214
0.39,8.813036739879697e-06,0.000596702563902563,-0.007373112648776905,-45.478407243422915,51.35691366813136,5.099475720628482,-1653730.0410053588,5087454.02148647,3588265.2757332334,-219.91020092582312,-4938.927846227289,6866.714151162034,0.9946713990677971,-1.208295581261067e-05,0.0001174088029710878,0.10309604233764959
0.395,-1.4211246494595031e-05,0.000585095657125071,-0.007366702282797512,-45.47859261340028,51.348707428537935,5.09699778396516,-1653731.1398299339,5087429.326838072,3588299.6097639496,-219.61962916380463,-4938.9315127658565,6866.8981353369,0.9946732990696668,-1.221699897438078e-05,0.00011889465913662357,0.10307770773872531
0.4,-1.1563069479611002e-05,0.0005957100418994691,-0.0073394217076240865,-45.47161773767181,51.33563015479212,5.096716731645532,-1653732.2372016918,5087404.632171347,3588333.944714508,-219.32907400506278,-4938.935177149393,6867.082087940032,0.9946751970825333,-1.2405303292623984e-05,0.00012034571953084304,0.10305938905233182
0.405,-3.96546110454837e-06,0.0005865915743031761,-0.007378151743088215,-45.47525778840369,51.33104606693906,5.10491420263279,-1653733.3331208248,5087379.937486319,3588368.280584731,-219.0385791688173,-4938.938834348768,6867.266001402345,0.9946770877251978,-1.2589748988934626e-05,0.0001218238576921229,0.1030411381680403
0.41000000000000003,1.7557850481596672e-06,0.0006329616782331914,-0.0073498865301561585,-45.46683416353618,51.31858639673479,5.095013007555815,-1653734.427587504,5087355.2427831115,3588402.617374547,-218.74809252408198,-4938.942448465844,6867.4499248514885,0.9946789880090237,-1.2752964615936761e-05,0.00012328127693145467,0.10302279093692521
0.41500000000000004,-2.99050691511432e-05,0.0006014324970016339,-0.007353145224557882,-45.469592037510026,51.310199426967536,5.09851995756845,-1653735.5206018833,5087330.548061746,3588436.955083824,-218.45765923781892,-4938.946097708367,6867.633786011508,0.9946808806593951,-1.2913887462630091e-05,0.0001248554789968661,0.10300451395444447
0.42,-2.571646394205857e-06,0.0005771272130726057,-0.007353483041293905,-45.47616060315674,51.287044904215136,5.094110673634911,-1653736.612164129,5087305.8533222135,3588471.2937123626,-218.16723902495977,-4938.949715443167,6867.817629406097,0.9946827738193805,-1.3145423317965412e-05,0.00012634312420297476,0.10298622884442316
0.425,1.3814608284270656e-05,0.000610116717407275,-0.007346474121010052,-45.468590535757244,51.28838598964651,5.09312737944316,-1653737.7022743055,5087281.158564696,3588505.6332598603,-217.8768315265023,-4938.953291333552,6868.00136971439,0.9946846667366068,-1.3302731289793792e-05,0.0001277773666522477,0.10296794285148832
0.43,1.202447030010433e-05,0.0005865219118044054,-0.007345452527656126,-45.46917886418196,51.267608273784504,5.091356027799563,-1653738.7909325338,5087256.463789226,3588539.9737261045,-217.58645985183057,-4938.956896964582,6868.185127898435,0.9946865575015674,-1.3427781280955264e-05,0.00012929786282383672,0.10294967424639268
0.435,-1.6286581461509417e-05,0.0006130992395204033,-0.00736034674892202,-45.46635887692922,51.264092080214965,5.0936253062316,-1653739.8781390004,5087231.768995813,3588574.315110937,-217.29612672718702,-4938.960468028837,6868.368805112613,0.9946884476734579,-1.3551209808928822e-05,0.00013075922466061985,0.10293140814812841
0.44,-9.199041654996814e-06,0.0005856961583851136,-0.007372231375808049,-45.467025792402595,51.25144615441596,5.092055824251617,-1653740.9638938701,5087207.074184556,3588608.657414164,-217.0058211693655,-4938.964035097241,6868.552485562711,0.9946903413300574,-1.375188399591869e-05,0.00013227939110939645,0.10291310498543096
0.445,1.720085360567095e-05,0.0006012723254695494,-0.0073444564248561885,-45.47119994182265,51.23888016031633,5.083336172202981,-1653742.048197271,5087182.379355504,3588643.0006356738,-216.71553926474718,-4938.967585273566,6868.736118531143,0.9946922377140982,-1.3927886999552848e-05,0.00013373323665592893,0.10289477223238973
0.45,-1.0032960754228297e-05,0.0005911889675274617,-0.007339668812221027,-45.465306912484316,51.229342090901305,5.085204982848114,-1653743.1310492593,5087157.684508692,3588677.344775174,-216.42525599355173,-4938.971139733942,6868.919681374734,0.9946941266103035,-1.4042238050544099e-05,0.0001352326078832793,0.10287650850375284
0.455,-2.3423779721606003e-06,0.0005892475904181809,-0.007355472605691982,-45.468563957270796,51.219942134594724,5.081904437684714,-1653744.2124499604,5087132.989644132,3588711.6898324382,-216.1350244908166,-4938.974684308123,6869.103224514484,0.994696013940294,-1.4221717414490061e-05,0.00013669990029120137,0.10285825665531362
0.46,-3.720775214939753e-06,0.0005963605806854365,-0.007342588187939786,-45.460749176649465,51.19452751685609,5.080016095152384,-1653745.292399514,5087108.294761868,3588746.0358073153,-215.8447968880502,-4938.978220891316,6869.28672627062,0.9946979049973038,-1.438157847779235e-05,0.00013816434199047137,0.10283996546945899
0.465,2.7700303666969425e-06,0.0006158582601788917,-0.007341693833617065,-45.46209273990293,51.196976024721806,5.074348947847333,-1653746.3708981404,5087083.599861992,3588780.3826994686,-215.55465370574032,-4938.981730084733,6869.470135014941,0.9946997924012776,-1.4546691557100391e-05,0.00013964611791152562,0.10282170628914343
0.47000000000000003,-7.332410544895635e-06,0.0005948253591630349,-0.00734426960306843,-45.46731323952479,51.18065360220433,5.0796508714847635,-1653747.4479460206,5087058.904944487,3588814.7305086697,-215.26449840940654,-4938.985271636088,6869.653545463427,0.994701679231365,-1.4700675273512303e-05,0.00014117804815135586,0.1028034492950092
0.47500000000000003,1.644598602024736e-05,0.0006094161921093777,-0.007334800746858793,-45.46577166296221,51.16971137130566,5.0882389641489425,-1653748.5235431714,5087034.21000943,3588849.0792348054,-214.97436184517161,-4938.988751380587,6869.836908855918,0.99470356639301,-1.4874376544458911e-05,0.00014265507817929612,0.1027851858650281
0.48,-9.929629078333127e-06,0.0005774618709707351,-0.007332104471574032,-45.45778068199014,51.15755908560973,5.078691848647311,-1653749.5976897478,5087009.515057094,3588883.4288777327,-214.68426870791566,-4938.992182610795,6870.020261921447,0.9947054507800382,-1.4992692597438814e-05,0.00014417450256218743,0.10276694593794809
0.485,-2.032319538616935e-06,0.0006034953020274057,-0.007334504731527594,-45.45294539502353,51.15273224225343,5.081293466254286,-1653750.6703859866,5086984.8200875195,3588917.7794372737,-214.39422682835507,-4938.995647261586,6870.203554512598,0.9947073341483407,-1.5168387973791445e-05,0.000145607687800308,0.10274871269180304
0.49,1.1492093591097557e-05,0.0005817133711540447,-0.007338724236542926,-45.45670856763067,51.131413661165446,5.073155845762326,-1653751.7416321144,5086960.125100632,3588952.130913279,-214.104224309569,-4938.999107757951,6870.386847608945,0.9947092177875264,-1.533113269327399e-05,0.0001471076406061323,0.1027304734381468
0.495,9.535450276724735e-07,0.0005958081540625583,-0.0073340496884907545,-45.44831116870118,51.12521099637345,5.075825804643019,-1653752.8114282724,5086935.430096486,3588986.4833054906,-213.8142388680388,-4939.002550993388,6870.570037008217,0.9947111021821041,-1.5454652643181948e-05,0.00014855689990527998,0.10271222365261487
0.5,-1.4078494181924574e-05,0.0005839697501482726,-0.00734825678355108,-45.4575248814785,51.10652836737586,5.081976239790539,-1653753.879774648,5086910.735075123,3589020.8366136444,-213.524311336769,-4939.00599396245,6870.7532245554285,0.9947129850339392,-1.5607997146140433e-05,0.0001500385038329521,0.10269398546024033
0.505,-1.5729537286023863e-05,0.0005942462887097989,-0.007346580587244521,-45.446161750756154,51.09578156039389,5.066204560878949,-1653754.9466714012,5086886.040036743,3589055.190837592,-213.23438999231752,-4939.009358167054,6870.936354436863,0.9947148711998743,-1.579568905212315e-05,0.0001514868083701221,0.10267571190919766
0.51,-1.5220927736920933e-05,0.000612379410028606,-0.00734911163948095,-45.44035851985476,51.08703812779808,5.076279401608656,-1653756.0121186874,5086861.3449813705,3589089.5459770155,-212.94452444289982,-4939.0127905333975,6871.119414961327,0.9947167565938113,-1.5990123988039848e-05,0.0001529602446813051,0.10265744249185188
0.515,2.6509523900384358e-05,0.0005840422185636256,-0.007350212549736822,-45.43648289333352,51.07578191641677,5.071714687973481,-1653757.0761167966,5086836.649908938,3589123.9020317574,-212.6547192935393,-4939.016182317907,6871.302481828054,0.994718642292488,-1.618794882994768e-05,0.00015447890466979358,0.10263916674451184
0.52,-4.169442100841038e-06,0.0005852500573246066,-0.007339297615665569,-45.442296914190486,51.05955900529048,5.069345987173965,-1653758.1386659741,5086811.954819529,3589158.2590017174,-212.3649517123717,-4939.0195814968165,6871.4855022876645,0.9947205279482331,-1.6274727681739627e-05,0.00015593780367664152,0.10262088820958058
0.525,-7.421956612260294e-06,0.0006018085431844138,-0.00734217333803168,-45.44188750544551,51.04893790835746,5.069383636187325,-1653759.1997663288,5086787.2597132055,3589192.616886609,-212.07519014661835,-4939.022948101989,6871.668454140802,0.994722410464502,-1.6438104639736787e-05,0.0001573918359728483,0.1026026367950136
0.53,-1.4024438931667007e-05,0.0005946269870034469,-0.007341719911066217,-45.43905790756275,51.02903164307278,5.0687225427937035,-1653760.2594179425,5086762.564590089,3589226.9756861744,-211.78545535283504,-4939.026298281579,6871.851372078333,0.9947242933745604,-1.6613818457158172e-05,0.00015888621154852808,0.10258437819490071
0.535,-7.359659477147628e-06,0.000598125081127394,-0.007320148863470055,-45.42430563136119,51.01457960071002,5.069380303644143,-1653761.3176210164,5086737.869450297,3589261.3354001506,-211.49577414293526,-4939.02961851493,6872.034218524117,0.9947261758335614,-1.6804109424051865e-05,0.00016036103463930486,0.10256612069050543
0.54,-1.6078769111762164e-06,0.0006042649037309673,-0.007315093792178786,-45.424856251928794,51.01902112302214,5.057103423003948,-1653762.374375931,5086713.174293899,3589295.6960282703,-211.2061916869966,-4939.032940609776,6872.217029361223,0.9947280524239608,-1.697871462577457e-05,0.00016184626664797938,0.10254791679182626
0.545,-7.951136394376532e-06,0.0005803711004562409,-0.007319443582538684,-45.43175297648828,50.993713828454986,5.066267828185144,-1653763.4296828813,5086688.4791207295,3589330.0575704244,-210.9165885378786,-4939.0363272725,6872.399832140081,0.9947299273809971,-1.714058819281291e-05,0.0001633482420344408,0.1025297254270606
0.55,-1.11050187020625e-05,0.0006141213702628393,-0.007314060063926942,-45.4247097962864,50.983830009751856,5.0561067570556615,-1653764.4835418973,5086663.783930879,3589364.4200264066,-210.6270177906828,-4939.039612857174,6872.582560735977,0.9947318031274173,-1.731211354276549e-05,0.00016478917154487098,0.10251152321420716
0.555,-6.639851704956839e-06,0.0005890701312203289,-0.0073394946495508664,-45.4237668026906,50.96844139899656,5.056225436499989,-1653765.5359531643,5086639.088724503,3589398.783395897,-210.33748907386075,-4939.042937520771,6872.765235456996,0.9947336771450649,-1.7500129315547164e-05,0.0001663132241264413,0.1024933343545568
0.56,-5.504603890268737e-06,0.0006159162432924041,-0.007321806764324725,-45.41880779642249,50.9543553855648,5.062607185910709,-1653766.5869168828,5086614.39350157,3589433.1476786295,-210.0479982493222,-4939.0462355720565,6872.947857569532,0.9947355573545162,-1.7670632565086166e-05,0.0001677761213858853,0.10247508220792904
0.5650000000000001,7.614030078526343e-06,0.000612824854365589,-0.007306765858677812,-45.42931496778964,50.94170715366528,5.059849601522087,-1653767.6364333008,5086589.698262247,3589467.5128744068,-209.75856897706024,-4939.0494936028535,6873.130453276604,0.994737432684983,-1.784518285513845e-05,0.00016930607216215077,0.10245687401190955
0.5700000000000001,8.690853408691139e-06,0.0005705565430798,-0.0073352528795567916,-45.41869450669421,50.9400766575364,5.054579334519199,-1653768.6845025173,5086565.003006716,3589501.8789830143,-209.4691176500272,-4939.052719083269,6873.312989799413,0.994739303829778,-1.7986310947113364e-05,0.00017083169598728119,0.10243870318035495
0.5750000000000001,2.9711302854632583e-06,0.0005951067008287511,-0.007342247195394687,-45.40689113356017,50.91693308094635,5.055266444234541,-1653769.7311246006,5086540.307734942,3589536.2460042955,-209.1797156659905,-4939.055990540262,6873.495522643102,0.9947411819527059,-1.8113948525523995e-05,0.00017225247936848378,0.10242046147280306
0.58,-1.640446335649778e-05,0.0006046848204470471,-0.007318043963239909,-45.399371994436905,50.90919230271106,5.056817290171972,-1653770.7762999274,5086515.612446872,3589570.6139380573,-208.89041501114653,-4939.059237753803,6873.677982160808,0.9947430615187545,-1.8262099316334012e-05,0.00017373285046523498,0.10240220233807446
0.585,-7.892236753819847e-06,0.0005964453593968013,-0.007324060772036498,-45.40290892177996,50.89089835525698,5.057457682657554,-1653771.820028889,5086490.917142567,3589604.982784087,-208.60116966005836,-4939.0624837498735,6873.860429677567,0.9947449345473047,-1.8460875983426356e-05,0.00017523208176968701,0.10238400336669794
0.59,2.45119341799922e-05,0.0006113364540276119,-0.007326118179580724,-45.39661075875732,50.874649604635735,5.05507173558386,-1653772.8623116834,5086466.221822145,3589639.3525421876,-208.3119480499196,-4939.06568522135,6874.042810459485,0.9947468087844503,-1.863637757188663e-05,0.00017671300112159018,0.10236578939446932
0.595,-1.2846956342152503e-05,0.0005844441964650479,-0.007313574171962009,-45.396682571643005,50.86329166345383,5.045709605767585,-1653773.90314852,5086441.526485735,3589673.723212045,-208.02278664031488,-4939.068878997123,6874.225132643453,0.9947486832071837,-1.873510604555671e-05,0.0001782392451864707,0.10234757025616985
0.6,-5.221796531407488e-06,0.0005954387096225531,-0.0073176403585931546,-45.397206974444295,50.850051981902084,5.045634584915075,-1653774.9425395844,5086416.831133311,3589708.0947933546,-207.73363909375954,-4939.072090626269,6874.4073912292015,0.9947505540951848,-1.8919854798149865e-05,0.00017968905320512444,0.10232938229661177
0.605,-1.9626141595806398e-05,0.0005903278283628758,-0.007315123422621764,-45.38594730200544,50.82927600986109,5.048106927905482,-1653775.9804849788,5086392.1357648885,3589742.467285843,-207.44451867015263,-4939.075278313053,6874.589604112133,0.9947524256839367,-1.9088455195486865e-05,0.00018116815366082362,0.10231118418655422
0.61,2.694242377702348e-06,0.0005835463657705245,-0.00728851644000212,-45.39199061931024,50.820653808500616,5.047824440480187,-1653777.0169850131,5086367.440380595,3589776.840689248,-207.15549509808477,-4939.078438973026,6874.771757776414,0.9947542962955492,-1.9291569088615694e-05,0.0001826308597077973,0.10229299230813088
0.615,8.124649781556392e-06,0.0005617298690633721,-0.007285620237062128,-45.3828730808194,50.802260568038534,5.048953415469324,-1653778.052039914,5086342.744980558,3589811.2150033405,-206.86646527897776,-4939.081575733134,6874.953879245056,0.9947561597734399,-1.9437428342253618e-05,0.00018408241030128965,0.10227486655406187
0.62,7.128437654110948e-06,0.0006092137315005939,-0.007310042999852052,-45.38226364904305,50.79149198936256,5.039793502712663,-1653779.085649869,5086318.04956489,3589845.5902279024,-206.5775166395278,-4939.084691776975,6875.135945561252,0.9947580221889298,-1.9564203230290647e-05,0.0001854810942233216,0.10225674796694009
0.625,-5.090667452124176e-06,0.0005884055449782176,-0.00729586978722535,-45.37200422143529,50.77924446115601,5.044532535234766,-1653780.1178151206,5086293.354133591,3589879.966362646,-206.28858403082995,-4939.08782763236,6875.317951714489,0.9947598904925776,-1.970560577507194e-05,0.00018699760959785735,0.10223856860685261
0.63,-1.6145866552595426e-05,0.0005957295108840099,-0.007309695199935818,-45.38585303679268,50.768242411056846,5.043402876567759,-1653781.1485359087,5086268.658686659,3589914.343407372,-205.9997312233358,-4939.090944947264,6875.499938751229,0.9947617548489126,-1.9872070878475583e-05,0.00018845925457496861,0.10222042446655251
0.635,3.3045302592918016e-06,0.0006105188147074666,-0.007316043808935125,-45.37070887653894,50.74683861800551,5.041027998520561,-1653782.1778123379,5086243.963224246,3589948.7213619063,-205.7108404082449,-4939.094020172798,6875.681874976574,0.9947636224005953,-2.0067907359408142e-05,0.00018993628763708633,0.10220224591432184
0.64,4.782699602237378e-06,0.0005964055648061917,-0.007326593879367263,-45.36510871588268,50.73763515141563,5.042459638970083,-1653783.2056445857,5086219.267746461,3589983.1002259413,-205.42205873115475,-4939.097094004102,6875.863739115321,0.9947654912335862,-2.0219154230391276e-05,0.00019145506965597553,0.10218405152930778
0.645,2.1922617461436786e-05,0.0005922951648999671,-0.007324666515762766,-45.370156358944094,50.71380867135636,5.041416653185864,-1653784.232033048,5086194.572253327,3590017.4799992475,-205.1333262164609,-4939.100159726014,6876.045583317943,0.9947673624330073,-2.036312469194871e-05,0.00019293913025541053,0.10216583087271922
0.65,4.637979982244645e-06,0.0005948367189323719,-0.007305374133366085,-45.35740649797826,50.70405912800781,5.024323212070645,-1653785.2569779097,5086169.876744998,3590051.8606815366,-204.84461849432503,-4939.103171751474,6876.227332356121,0.9947692328071588,-2.0463418783704645e-05,0.00019441734644351738,0.1021476149667759
0.655,-2.343251967734816e-05,0.0006067159226250139,-0.007307903716171837,-45.35882516343731,50.686775796480006,5.035312619317786,-1653786.280479379,5086145.181221413,3590086.242272401,-204.55596919175147,-4939.106262124926,6876.409013460575,0.9947710979176357,-2.0607338089756865e-05,0.00019589747024129824,0.10212944701338786
0.66,-1.1112267447059858e-05,0.0005891132446854758,-0.0073009179548537756,-45.3493466404039,50.66392649582496,5.0281924492494054,-1653787.3025377132,5086120.485682573,3590120.6247715913,-204.26736448697216,-4939.109273788029,6876.590662628245,0.9947729633325412,-2.0824100973407928e-05,0.00019739996950268046,0.10211127274793756
0.665,1.933196434498041e-06,0.0006110064710946981,-0.007297384158422573,-45.34673278312645,50.65503623587018,5.036617873814648,-1653788.3231532245,5086095.79012867,3590155.0081787873,-203.97884004782176,-4939.112287784501,6876.772215785854,0.9947748266395149,-2.1005727188428393e-05,0.00019886183748282643,0.10209311581616079
0.67,8.898063709691599e-06,0.0006052720902619598,-0.007280236105463437,-45.34234336567106,50.64272887484594,5.030464765399482,-1653789.342326224,5086071.094559798,3590189.392493745,-203.69035975448463,-4939.115260691529,6876.953767271456,0.9947766887008639,-2.116049626112937e-05,0.00020038148228827937,0.10207496763085275
0.675,2.1016557106480353e-05,0.0006048268746206144,-0.007290600257675272,-45.343576063790906,50.623029015344876,5.022884617987323,-1653790.3600569211,5086046.398976033,3590223.7777163233,-203.4019190613859,-4939.11824575554,6877.135263959018,0.9947785460568784,-2.1296472175521248e-05,0.0002018886442094518,0.10205686205443805
0.68,6.706365304120457e-07,0.0005986356336713048,-0.007293593876159993,-45.33248111335029,50.61766399982552,5.0244882256245935,-1653791.3763454796,5086021.703377368,3590258.163846151,-203.1135043259052,-4939.121220099167,6877.316667106201,0.9947804057258162,-2.1402201677432126e-05,0.00020339779022249081,0.10203873066275061
0.685,3.596607917520788e-05,0.0006027499849567589,-0.0072877226337634896,-45.33174152099716,50.591888632627295,5.026623084978478,-1653792.391192132,5085997.007763803,3590292.550882996,-202.8251565999902,-4939.124205673787,6877.498070954475,0.9947822658276163,-2.1556952636314314e-05,0.00020488634851456315,0.1020205918026149
0.6900000000000001,4.220577674771773e-06,0.000611490120606168,-0.007284712694899659,-45.32320740555713,50.57525621700776,5.037274195010994,-1653793.4045971911,5085972.312135458,3590326.938826637,-202.53686712901083,-4939.127132397171,6877.679385428035,0.9947841240990174,-2.1624971751004373e-05,0.00020639414141862414,0.10200246749157527
0.6950000000000001,-1.364890316325519e-05,0.0005940958276337545,-0.007265679918490104,-45.32669185651325,50.57235026397977,5.022087008512964,-1653794.4165610222,5085947.616492618,3590361.3276767954,-202.24866520468336,-4939.130003603268,6877.860678014883,0.9947859812642681,-2.1774167896148053e-05,0.000207915575488204,0.10198435064796138
0.7000000000000001,1.5149954256371384e-05,0.0006035092030745964,-0.007276041622576731,-45.31376402715173,50.54820125985277,5.018568466865149,-1653795.4270837824,5085922.920835289,3590395.7174332957,-201.96043896074255,-4939.132927901705,6878.041922062724,0.9947878332536351,-2.196336004940064e-05,0.0002093891955090861,0.10196628111446214
0.705,-9.042929078221531e-06,0.0005828244939807237,-0.007302836821396785,-45.31551469174883,50.53497694184458,5.021221502209908,-1653796.4361656683,5085898.225163358,3590430.108095795,-201.6723153393135,-4939.135844372129,6878.223077714675,0.9947896875500992,-2.2083335354208597e-05,0.00021089356695074249,0.10194818576220846
0.71,-1.7124169752106334e-05,0.0005639986125250046,-0.0072722845603673085,-45.29705425277946,50.52261516050885,5.015481509090673,-1653797.4438069984,5085873.529476939,3590464.499663975,-201.3842167243903,-4939.138723529528,6878.404194277483,0.9947915483528785,-2.2258219934687794e-05,0.00021234032845292885,0.10193002375080197
0.715,-5.772993999022371e-06,0.0005993099883086701,-0.007265110317423143,-45.296965058318115,50.49834285162522,5.013115714885331,-1653798.4500080936,5085848.833776025,3590498.8921376327,-201.0962213454518,-4939.141642011223,6878.58526875031,0.9947934010474733,-2.2448388857468716e-05,0.00021373821271225853,0.1019119376935174
0.72,-5.286760289406435e-06,0.0005788510017728486,-0.007266693491817912,-45.29031295623654,50.486141360789325,5.012441402499647,-1653799.4547693287,5085824.138060616,3590533.2855164213,-200.8082727407366,-4939.144521491945,6878.766246745435,0.9947952515653845,-2.261932037928103e-05,0.0002152268081629931,0.10189386943654113
0.725,-1.4048937685430125e-05,0.000594596793159889,-0.00728085780578025,-45.29250403828792,50.47198911203094,5.012150950715375,-1653800.4580909621,5085799.442330821,3590567.679800007,-200.52038064392482,-4939.147396381234,6878.947187516833,0.9947971021672215,-2.2783831874692813e-05,0.00021666464605666575,0.10187579720928233
0.73,-4.218910883587354e-05,0.0005720353889816377,-0.007273225265217806,-45.27690372941493,50.45668896277475,5.00759140147894,-1653801.4599731874,5085774.746586724,3590602.0749881677,-200.23250944313907,-4939.150242551626,6879.1280767859325,0.9947989560364374,-2.2974152794133683e-05,0.0002181394111060176,0.10185768972541964
0.735,-3.6017020933222716e-05,0.0005819294296667643,-0.0072740128578658685,-45.28329466450515,50.43374791834771,5.0086739062599035,-1653802.4604162998,5085750.050828341,3590636.471080642,-199.94473547019962,-4939.153110745679,6879.308912899756,0.9948008076413866,-2.3228708944454965e-05,0.00021955090063572664,0.10183960120637822
0.74,6.6870857287285e-06,0.000594402264994599,-0.00727269927183296,-45.28213518318709,50.42245346403306,5.000454431503816,-1653803.4594205914,5085725.355055774,3590670.8680770798,-199.65698121944277,-4939.1559160967845,6879.489662129778,0.9948026591107638,-2.3470434537159443e-05,0.0002209885679532289,0.10182151069074287
0.745,8.049136006409238e-06,0.0005901809793484457,-0.007263902900640932,-45.274283592529734,50.40310082392027,5.003824839389314,-1653804.4569861633,5085700.65926914,3590705.2659771154,-199.3692475163913,-4939.158737438001,6879.670352083226,0.994804509910305,-2.3609129006527954e-05,0.00022246812579026828,0.10180342338379356
0.75,-6.566552813942318e-06,0.0005993214244641436,-0.007288860985478001,-45.26127754403781,50.383161620130245,5.007682596716554,-1653805.4531132667,5085675.9634684855,3590739.6647804654,-199.08159381429496,-4939.161524310435,6879.850988100606,0.9948063581428801,-2.3743356788039027e-05,0.00022393753234101096,0.1017853579191739
0.755,1.3590764811031785e-06,0.0005886693896173904,-0.007250326696983103,-45.26153822036372,50.36299915909107,5.005745583122899,-1653806.4478023634,5085651.267653964,3590774.0644868696,-198.79404488533413,-4939.1642840223185,6880.031573468404,0.9948082123889965,-2.3916273893388793e-05,0.00022542595061017976,0.10176723035713345
0.76,9.579890388180396e-06,0.0005679193897851262,-0.007263214301540392,-45.25588878886405,50.35663142674168,5.007611841465833,-1653807.4410538112,5085626.571825726,3590808.4650960034,-198.50653425905392,-4939.167011689876,6880.212079977943,0.994810056506995,-2.4066748001228875e-05,0.00022688989570238246,0.10174919859299214
0.765,-1.2298625309094412e-06,0.0005901167160607448,-0.007256373499403942,-45.25119646838079,50.331680742458836,4.9983797924643385,-1653808.4328678176,5085601.875983857,3590842.866607651,-198.21906831305927,-4939.169736022976,6880.392579167081,0.994811903586015,-2.4191505800761144e-05,0.0002283043253258334,0.10173113473993825
0.77,2.184253802860545e-07,0.0006071154486090878,-0.007254131590403802,-45.249811935537444,50.31906799619172,5.00231270224669,-1653809.4232446437,5085577.180128376,3590877.2690215083,-197.93166213167208,-4939.172456239315,6880.572963767428,0.9948137485821248,-2.4348789262982486e-05,0.00022977121147726206,0.10171308787126625
0.775,-1.710867614245661e-05,0.0005908245054851544,-0.007246144984325696,-45.23722009584518,50.30373354257098,4.995505805245806,-1653810.4121845379,5085552.48425938,3590911.6723372126,-197.6442954618735,-4939.17514191257,6880.753317904231,0.9948155926689655,-2.4506791971454504e-05,0.00023128074239575782,0.10169504654274167
0.78,1.518442701738807e-06,0.0005986044472825562,-0.007243335389196601,-45.23992904260784,50.282149448186246,4.99580333758816,-1653811.3996878006,5085527.788376895,3590946.076554532,-197.3570096739683,-4939.177852123665,6880.933609889737,0.9948174344046113,-2.4703741460326436e-05,0.00023274535231548334,0.10167702505459655
0.785,-1.1612761270018591e-05,0.0005788653033357746,-0.007241821898462714,-45.232010626517884,50.26028286926341,4.997939836590584,-1653812.3857547163,5085503.092480982,3590980.4816731103,-197.0697565898456,-4939.180513158152,6881.1138213742615,0.9948192750941635,-2.4856340453134116e-05,0.00023423404626128264,0.10165901050913914
0.79,-1.4461587821705871e-05,0.0005808619379378064,-0.007243458676944038,-45.22042717437716,50.25881674048934,4.986903302106286,-1653813.3703855744,5085478.396571852,3591014.8876925767,-196.7825867086657,-4939.183138905296,6881.293965262156,0.9948211150815074,-2.503657983389693e-05,0.00023567031075864798,0.10164099970317357
0.795,-5.4753242984341134e-06,0.0005864742076250021,-0.007232484989760289,-45.231606282553955,50.23064468613169,4.990397422099468,-1653814.353580698,5085453.700649416,3591049.2946127164,-196.4954626546485,-4939.185835584511,6881.474090574064,0.9948229551551635,-2.5224412702611117e-05,0.0002371108169175109,0.10162298479447046
0.8,7.923876463075579e-06,0.0006048289712297521,-0.007243899168719257,-45.2073405718277,50.21679847048732,4.992247474671687,-1653815.335340228,5085429.004713732,3591083.702433219,-196.20834933216332,-4939.188437997214,6881.654110478442,0.9948247921102618,-2.5391315543970535e-05,0.00023856756475433563,0.10160499713878576
0.805,-5.499895523673189e-06,0.0006092015451652278,-0.007254757470604485,-45.21084019491791,50.19544390942119,4.985383349616308,-1653816.3156645452,5085404.308764991,3591118.1111537656,-195.9213775829414,-4939.191058183557,6881.834108187867,0.9948266316266487,-2.5529562881069407e-05,0.00024007336478706377,0.10158698105267831
0.81,8.591356846276125e-06,0.0006104396935028374,-0.007224069800368392,-45.19728380947209,50.174434116060375,4.979999365891256,-1653817.2945540526,5085379.612803205,3591152.52077405,-195.63442537435105,-4939.193656266759,6882.0140056521,0.9948284735681627,-2.570231303283246e-05,0.00024158662972868886,0.1015689379354281
0.8150000000000001,-3.630557587949361e-07,0.0005907794188155728,-0.007245744299475054,-45.189069315215484,50.163225319570465,4.9787302020602,-1653818.272009042,5085354.916828409,3591186.931293621,-195.34757042400736,-4939.1962622295505,6882.193822680852,0.9948303073893723,-2.584031308760285e-05,0.00024310655400937468,0.1015509710985021
0.8200000000000001,-1.4053291403048814e-05,0.0005955962376290988,-0.007228497757973067,-45.18462358026906,50.13880398901158,4.974107981732294,-1653819.2480299089,5085330.220840575,3591221.342712193,-195.0607763377489,-4939.198871302593,6882.373606071872,0.9948321463969158,-2.5995605309540143e-05,0.0002445753068937771,0.10153295032871543
0.8250000000000001,1.9049687315895205e-06,0.0005795525427732316,-0.007238418180732204,-45.182898054470584,50.132588138354514,4.970819903008795,-1653820.2226169643,5085305.52483975,3591255.7550294325,-194.7740457962521,-4939.201458726458,6882.553289661563,0.994833980695047,-2.618615835855631e-05,0.00024605256560887405,0.10151497242706108
0.8300000000000001,9.701108137779463e-06,0.0006073589365340535,-0.00720796940654831,-45.1718987777925,50.105851989647064,4.97667808665021,-1653821.1957704173,5085280.828825965,3591290.1682450282,-194.4873354052071,-4939.204055379815,6882.732948789002,0.9948358171942939,-2.6332956264577886e-05,0.000247493971567331,0.10149696981029
0.835,2.3509095412319445e-05,0.0005865037535467515,-0.00723681962471932,-45.16109956526643,50.087210423114456,4.97390541810918,-1653822.1674905946,5085256.132799333,3591324.582358734,-194.20073554258,-4939.206597213103,6882.9125334821565,0.9948376456241039,-2.646740128721052e-05,0.0002490065146515148,0.1014790428823715
0.84,2.2822380208486446e-06,0.0005798132085867052,-0.007227007277920274,-45.16699076011747,50.0680858685893,4.968346676457333,-1653823.1377779825,5085231.436759999,3591358.9973701984,-193.91421960057886,-4939.209136319941,6883.092052284352,0.9948394810604865,-2.656223158699128e-05,0.0002504706899954651,0.10146104416071904
0.845,7.409477827963841e-07,0.0005868251921446994,-0.007221627514221635,-45.15774216348407,50.04468708759461,4.97690478416955,-1653824.1066328068,5085206.740708037,3591393.4132790333,-193.627710077804,-4939.211648352406,6883.271481523027,0.9948413136834133,-2.6708151949048212e-05,0.0002519128416151273,0.10144306982369634
0.85,-9.120771636442735e-07,0.0005809894764099133,-0.007240361198081564,-45.13507938229324,50.034729743062236,4.961747027545198,-1653825.0740553336,5085182.044643669,3591427.8300848766,-193.3413006464071,-4939.214098955831,6883.450855939419,0.9948431446108466,-2.6859680555119503e-05,0.00025337204215559116,0.10142510883389837
0.855,5.566355835673327e-06,0.0005811459121476788,-0.0072225294416553175,-45.13396801368597,50.00961614549189,4.969686246863987,-1653826.040046077,5085157.348566822,3591462.247787454,-193.05499672124049,-4939.216639927001,6883.630174980577,0.9948449799647994,-2.701385254991724e-05,0.00025481630815469425,0.10140710121948544
0.86,-2.12119787022574e-05,0.000577808252926449,-0.007210011297402624,-45.12715473591282,49.99486376013877,4.960286852672689,-1653827.0046054656,5085132.652477469,3591496.6663864506,-192.76875871447325,-4939.2191012869835,6883.809423715902,0.9948468104711717,-2.7151940244143528e-05,0.0002562626067452852,0.10138913791716082
0.865,2.79789721962937e-05,0.0005814186319378594,-0.007233157217860399,-45.12244331529824,49.97931740991589,4.964224658898162,-1653827.9677337904,5085107.956375749,3591531.085881511,-192.48257121035923,-4939.221586797359,6883.988600467443,0.9948486374789767,-2.7355774755414803e-05,0.0002576938173719545,0.10137120573309645
0.87,2.097735519695703e-06,0.0005899118049724646,-0.0072121124894136265,-45.12161052768277,49.95391845898832,4.958603763557604,-1653828.9294313267,5085083.260261687,3591565.506272356,-192.19644331162772,-4939.224037774704,6884.167737518123,0.9948504700272846,-2.7438195264113337e-05,0.0002591464721477589,0.10135321591712135
0.875,6.137384242561893e-06,0.0005814287880281908,-0.007206936644614551,-45.10999697418415,49.93865333224155,4.953476348468484,-1653829.889698343,5085058.56413544,3591599.9275586125,-191.91036318326096,-4939.226461310034,6884.346764954745,0.9948522969094399,-2.7587124056821963e-05,0.0002606136940086284,0.10133527842496325
0.88,3.950567638322578e-06,0.0005971245192931379,-0.007231422676253532,-45.10543083300073,49.93091853626985,4.964555645959635,-1653830.8485351545,5085033.867997034,3591634.3497398603,-191.62436146489136,-4939.228900806847,6884.525734260032,0.9948541221608431,-2.772385326153194e-05,0.00026206084116633564,0.1013173537706242
0.885,-1.5904147564090672e-05,0.0005813118078942729,-0.007217392718318208,-45.09012905119755,49.89173861248245,4.953199630348889,-1653831.8059420926,5085009.171846544,3591668.7728159847,-191.33841376199936,-4939.231295194219,6884.704715436002,0.9948559532777486,-2.7870013032900767e-05,0.00026354647004218684,0.10129936818333422
0.89,-8.475408838088398e-06,0.000600720409805146,-0.0072203898148415786,-45.093708319562836,49.877577325479166,4.954006383426951,-1653832.7619196174,5084984.4756841,3591703.196786591,-191.0525961812475,-4939.233682822762,6884.883527061514,0.9948577805239418,-2.8061540461114933e-05,0.0002649877432085924,0.10128141747143167
0.895,8.73835071861916e-07,0.0005730951761664502,-0.007197534219575744,-45.074802209289615,49.85546049468314,4.949717939803279,-1653833.7164680941,5084959.779509806,3591737.6216511307,-190.76679450687772,-4939.2360344089275,6885.062288938596,0.9948596081904729,-2.8239507846095365e-05,0.0002664791690573715,0.10126345926582532
0.9,-4.017694755044458e-06,0.0005829891850284946,-0.007205120773254698,-45.07995266858959,49.842862354092276,4.950871056241067,-1653834.6695878739,5084935.0833237255,3591772.0474092863,-190.48111736475295,-4939.238397891057,6885.240973284566,0.9948614297646948,-2.8387213465856697e-05,0.00026790425520176783,0.1012455578681029
0.905,-8.900552336786367e-06,0.0005996339803379024,-0.007194368614259797,-45.06983920063747,49.82270292374602,4.948934059472637,-1653835.621279284,5084910.3871259205,3591806.4740607543,-190.19544668899115,-4939.24072429135,6885.419613866414,0.9948632529276733,-2.8549594454543472e-05,0.0002693527105257084,0.10122763757100325
0.91,3.1782995439882285e-06,0.0005951405747885842,-0.007200684753533038,-45.05689401686015,49.80078632344091,4.9421459901711415,-1653836.5715425522,5084885.69091651,3591840.9016052494,-189.909860588206,-4939.243039759217,6885.598184075743,0.9948650730335681,-2.8728324915818527e-05,0.0002708413290668896,0.10120974398530656
0.915,9.28467692471532e-06,0.0005663450745746678,-0.0071872760629495365,-45.05340842183471,49.78363461423584,4.945988947151792,-1653837.5203781254,5084860.994695498,3591875.3300423734,-189.62436869383228,-4939.245365167251,6885.776665563077,0.9948668944171756,-2.8875880633700104e-05,0.0002723218274793101,0.10119183464949288
0.92,-7.919943998904856e-06,0.0005776315390977,-0.007194334539455735,-45.05067838030306,49.76331607987432,4.936471763238605,-1653838.4677863813,5084836.29846296,3591909.759371786,-189.33893364710073,-4939.247650136236,6885.955099529369,0.994868712104806,-2.9000954957991664e-05,0.0002737322523351929,0.10117395862831166
0.925,1.2611252613573838e-05,0.0005677015492272692,-0.007205956802754338,-45.043174694933384,49.74377519713975,4.933790721600018,-1653839.413767567,5084811.602218987,3591944.1895931223,-189.05354060251238,-4939.249938508642,6886.13343509378,0.9948705312452507,-2.9171679691568306e-05,0.00027516639631734177,0.10115606502953865
0.93,-7.489643330960631e-06,0.0005919663159465523,-0.0071785829992197705,-45.0204947416685,49.728650555362734,4.934375341081486,-1653840.3583219643,5084786.905963604,3591978.6207059566,-188.7682183303051,-4939.252214928016,6886.311698508719,0.9948723530087884,-2.9288836507823345e-05,0.0002765810338640722,0.10113814247776456
0.935,-2.056234943416301e-06,0.0005768726381714888,-0.007179788822139062,-45.02496291147901,49.700776236772974,4.931954416604085,-1653841.3014500877,5084762.209696798,3592013.0527100265,-188.4830311061734,-4939.254507772082,6886.489929489132,0.994874167508997,-2.946210418455415e-05,0.0002780509417708739,0.1011202879888022
0.9400000000000001,1.1909140240168049e-05,0.0005761544918438381,-0.007194971516287657,-45.013857980916995,49.68574007660177,4.9378520220224065,-1653842.2431523562,5084737.513418668,3592047.4856049633,-188.1978763251231,-4939.256743933915,6886.66804522644,0.9948759820023284,-2.9618043103207686e-05,0.0002794846822929749,0.10110243046527971
0.9450000000000001,-5.144631423267984e-07,0.0005768079847642566,-0.007199136632084014,-45.00487898391139,49.657101352855726,4.930518795877272,-1653843.1834290754,5084712.8171294285,3592081.9193904116,-187.91281132712197,-4939.2589520186075,6886.8461340673975,0.9948778000114354,-2.9739076563844953e-05,0.00028092016526715536,0.10108453513695571
0.9500000000000001,1.575340254960718e-05,0.0005721969376738644,-0.007169063279483405,-44.98978411516593,49.64496541552848,4.921853999922217,-1653844.1222806892,5084688.120829177,3592116.3540660017,-187.62783413424708,-4939.261148604837,6887.024102031139,0.9948796187475882,-2.989117800300822e-05,0.00028235413361871013,0.1010666294249205
0.9550000000000001,1.1785059867333918e-05,0.0005987611482921325,-0.007190855723116039,-44.98906592590281,49.615581385791025,4.927886715680242,-1653845.0597076262,5084663.424517832,3592150.7896313006,-187.34294070123318,-4939.263389351033,6887.20201748493,0.9948814295667073,-3.0001631726594338e-05,0.000283780745879884,0.10104879846735075
0.96,-3.9426243600371687e-07,0.0005754390618678446,-0.007177252490387357,-44.97851126432571,49.600552961776195,4.920037181574665,-1653845.9957102693,5084638.72819549,3592185.226085943,-187.05811650120674,-4939.265547236108,6887.379839501359,0.9948832455492491,-3.0128681681225458e-05,0.0002852724245234134,0.10103091327558561
0.965,2.614294912757882e-06,0.0005779555307220823,-0.007181903570541336,-44.973943639794975,49.57147469977116,4.924148944099741,-1653846.9302889653,5084614.031862297,3592219.6634295313,-186.7733619633415,-4939.267730075174,6887.557595769228,0.994885057788578,-3.0280123804500504e-05,0.00028670302099621136,0.10101306189552697
0.97,-2.279579412969171e-05,0.0005633200191390991,-0.007174428732704057,-44.97481548656803,49.57171038148124,4.9184998390944745,-1653847.8634440976,5084589.335518356,3592254.101661665,-186.48869088838327,-4939.269846231763,6887.735257666647,0.9948868708782959,-3.0424721820338495e-05,0.0002881406357760869,0.10099519891214329
0.975,-5.622787586985374e-06,0.0005666698667856891,-0.007168610097841372,-44.960377751794965,49.53659431256744,4.918111604809315,-1653848.7951758585,5084564.639163765,3592288.5407820903,-186.2040135315934,-4939.271990274652,6887.912912413511,0.9948886817668987,-3.062881956073313e-05,0.0002895354335928363,0.10097735450699204
0.98,2.50510283991639e-06,0.0005851867255375083,-0.007160482457174191,-44.93885968266666,49.521248482552075,4.915244922631674,-1653849.725484565,5084539.9427985605,3592322.980790481,-185.91946897076363,-4939.274091774808,6888.090443863499,0.9948904908637303,-3.0791045651756054e-05,0.0002909428987871796,0.10095952452872871
0.985,-1.2742049599381005e-06,0.0005866555212085496,-0.007180451732400097,-44.938778540810475,49.498467057680294,4.9146255098118,-1653850.6543708625,5084515.24642278,3592357.4216864184,-185.6350501479823,-4939.276220345037,6888.267931249739,0.9948922975750714,-3.093772355203191e-05,0.00029239847159983896,0.10094171472581027
0.99,2.252476402008677e-05,0.0005791517870106822,-0.0071789462017554755,-44.922554894653366,49.47662814592286,4.9160529218846465,-1653851.581835181,5084490.550036464,3592391.863469579,-185.35067722057192,-4939.278306083495,6888.445332850335,0.9948941090025372,-3.109418670719418e-05,0.0002938567422826243,0.10092385522469156
0.995,-1.280519576041803e-05,0.0005796315475910776,-0.007168752742362619,-44.91754191436476,49.4639710703197,4.912076304602134,-1653852.5078779329,5084465.853639758,3592426.30613959,-185.06642350970867,-4939.2803761970545,6888.6226716466335,0.9948959197348606,-3.1189561846697424e-05,0.0002953023541440225,0.10090599941855166
1.0,7.828102924497974e-06,0.0005890181524361961,-0.00714962706143559,-44.90721984017385,49.433404883636065,4.9072129929352535,-1653853.4324995298,5084441.157232692,3592460.7496961704,-184.78221526959135,-4939.2824500478455,6888.799960500976,0.9948977275705235,-3.137292455959308e-05,0.0002967402474719958,0.10088816895936642
1.0050000000000001,-8.819281714807245e-06,0.0005659064944230975,-0.007150996111543769,-44.90567019578779,49.41749882157419,4.913416429244654,-1653854.3557003364,5084416.460815315,3592495.194138893,-184.4981074012251,-4939.284500937602,6888.977128582955,0.9948995302561263,-3.150732051251965e-05,0.0002982066931232381,0.10087038602184564
1.01,1.889755079421923e-05,0.0005532453971475831,-0.0071525612499447186,-44.90082290108102,49.39525356680317,4.896184755698994,-1653855.277480726,5084391.764387811,3592529.6394673623,-184.2140483601603,-4939.286500859284,6889.154259080515,0.9949013329829012,-3.1677295459029884e-05,0.0002996114560562022,0.10085259966094515
1.0150000000000001,-1.7635498917191675e-05,0.0005953245150812222,-0.007136419967656769,-44.88010305780548,49.379345219857356,4.89835898937647,-1653856.1978409325,5084367.067950223,3592564.0856811684,-183.93003424867015,-4939.288534418349,6889.331263428043,0.9949031357959818,-3.1775140522385625e-05,0.00030099171569897965,0.10083480935495334
1.02,4.5143489647700075e-06,0.000576403888953985,-0.00713568602959733,-44.8775024106572,49.34568887775164,4.896903679201347,-1653857.1167813924,5084342.371502455,3592598.5327799143,-183.6461497462891,-4939.290572189978,6889.508234808313,0.9949049341860354,-3.197444814340299e-05,0.0003024674286355431,0.10081705918826314
1.025,1.0450498433133319e-05,0.0006029325361281472,-0.00713617792903229,-44.865902853087285,49.32417964225566,4.897453397070776,-1653858.034302619,5084317.675044648,3592632.980763191,-183.36234088139378,-4939.292550589888,6889.685075942152,0.9949067320883986,-3.2113893912107045e-05,0.00030390166367944525,0.10079931079952924
1.03,4.932794383336346e-06,0.0005944986842893908,-0.007157736733173807,-44.85939284769786,49.31083869733498,4.894282764655454,-1653858.9504050429,5084292.978577002,3592667.429630504,-183.07862870637558,-4939.294508025799,6889.8618492287105,0.9949085297762388,-3.224526042995366e-05,0.00030540337831007575,0.10078156114837089
1.035,-8.638419152064833e-08,0.0005846864071557767,-0.0071643477996481,-44.853778176735396,49.28318350586837,4.896431599977595,-1653859.865089042,5084268.282099564,3592701.8793815603,-182.7949709252122,-4939.296467445304,6890.038573229479,0.9949103325820496,-3.238824248293446e-05,0.00030688272361969777,0.10076375784711004
1.04,3.022573327689494e-06,0.0005860590715674278,-0.007152692351909255,-44.83209639358957,49.260003977822876,4.886899158153043,-1653860.7783549596,5084243.585612462,3592736.330016003,-182.5113961220059,-4939.298373225091,6890.21520395976,0.9949121367393381,-3.2541241874289666e-05,0.00030833639807699306,0.10074593807443459
1.045,8.456120272574056e-07,0.0006016806115609013,-0.0071287306514308275,-44.82710606314215,49.22997179045717,4.899377342675738,-1653861.6902033333,5084218.889115742,3592770.7815333637,-182.22795329454786,-4939.300314615402,6890.391740246751,0.9949139376394449,-3.268684514764908e-05,0.0003097942706213928,0.10072814725713451
1.05,-8.932104666767414e-06,0.0005984889011752875,-0.007159143214138206,-44.81027394179711,49.21678678485011,4.882286963270682,-1653862.6006347367,5084194.192609568,3592805.233933219,-181.9446081610253,-4939.302154915352,6890.568201956695,0.9949157321739713,-3.284177839741398e-05,0.0003112904520409306,0.10071041600749546
1.055,-1.920706228422623e-05,0.0005853691701142772,-0.007129106567094112,-44.81278351721,49.19995441207569,4.88378637296122,-1653863.509649621,5084169.496093997,3592839.6872151857,-181.66134553729526,-4939.304073553696,6890.744584613944,0.9949175340477403,-3.302025171862219e-05,0.00031277623036148153,0.10069260908853424
1.06,9.545467867960992e-06,0.0005767431163197434,-0.007155983329702198,-44.799992740213845,49.16602732684102,4.881932219660508,-1653864.4172482577,5084144.79956894,3592874.1413789205,-181.37810911853117,-4939.305949302455,6890.920909382209,0.9949193280501977,-3.3220955731190095e-05,0.0003142267919042156,0.10067487685631661
1.065,2.681882821567238e-06,0.0005941294424045181,-0.007136200069506024,-44.788583026975836,49.148022001135445,4.878164910008104,-1653865.3234310152,5084120.103034598,3592908.596423969,-181.09499394145485,-4939.307787472002,6891.097110088827,0.9949211285070245,-3.3347993659378545e-05,0.00031566313218838577,0.10065707771938907
1.07,3.1959744599646432e-06,0.0005965269749310437,-0.00711943637854012,-44.78098336318446,49.12581298534829,4.875776761692425,-1653866.228198407,5084095.406491056,3592943.0523498566,-180.81196273027422,-4939.309629323584,6891.273244935771,0.9949229236515676,-3.349646292114287e-05,0.0003171409919073472,0.10063932776104521
1.075,-1.467664197730629e-06,0.0005709921669531246,-0.007132639724328229,-44.77379346191547,49.10758609754777,4.880400572181632,-1653867.1315508331,5084070.709938353,3592977.5091562127,-180.52900771501209,-4939.311451932952,6891.449297532228,0.9949247142584081,-3.3644243392330804e-05,0.0003186249456734802,0.10062161946636447
1.08,-1.153902953309943e-05,0.0005675696940617887,-0.00711993322823755,-44.7586410827857,49.08539795212075,4.873957140519372,-1653868.0334886746,5084046.013376634,3593011.966842715,-180.24612888098054,-4939.3132359453075,6891.625303299557,0.9949265078886643,-3.3797210909107875e-05,0.0003200442120412577,0.10060387830455929
1.085,5.606651582664448e-06,0.0005564983947616039,-0.00713889948450709,-44.75079990700934,49.054114837255156,4.862658562685693,-1653868.934012384,5084021.3168059625,3593046.425409028,-179.96335485059555,-4939.315032229725,6891.801221785368,0.9949282980071955,-3.397435813422633e-05,0.0003214524335618837,0.10058616872404037
1.09,2.8310305843383885e-05,0.0005680071314504608,-0.007117634370359263,-44.74309761181065,49.037396663302914,4.860958304825462,-1653869.8331224285,5083996.620226322,3593080.8848545733,-179.68066293434316,-4939.316824054581,6891.976996393678,0.9949300925874051,-3.410608973309524e-05,0.0003228374270423478,0.1005684119233676
1.095,9.877759325952119e-06,0.0005776460088350146,-0.007110723208828868,-44.73333314337815,49.0163101599817,4.8657918249715175,-1653870.7308191825,5083971.923637745,3593115.3451788467,-179.39803864821502,-4939.318606757019,6892.152713023906,0.9949318814958293,-3.4184226324466516e-05,0.00032425675638010463,0.10055070796450735
1.1,1.3966202127846504e-05,0.0005845491124496281,-0.007121617645617923,-44.72139374686215,48.98806020543007,4.858759634921354,-1653871.6271030477,5083947.227040356,3593149.806381564,-179.11550747827874,-4939.32034872334,6892.328373906618,0.994933668340797,-3.4310628112800726e-05,0.00032569542775728286,0.10053302117808999
1.105,-4.931956001520158e-07,0.0005643476332795342,-0.007105037969534039,-44.70909858264848,48.972685942454525,4.848655554912866,-1653872.5219745084,5083922.530434273,3593184.268462295,-178.83307681207086,-4939.322084720987,6892.503918548408,0.9949354576016243,-3.442860441204988e-05,0.0003271522959804732,0.10051530725761573
1.11,-2.38100606459915e-06,0.0005716126716659511,-0.007116878817653174,-44.70285409960776,48.946452761744816,4.857512235436469,-1653873.4154340033,5083897.833819418,3593218.731420569,-178.55072115971055,-4939.323857147392,6892.6793909599555,0.994937242394753,-3.457745616416132e-05,0.0003285552841297497,0.10049763455798023
1.115,7.954830594771639e-07,0.0005755051891371721,-0.007100961030192433,-44.68975301030233,48.92864279772599,4.857935644194753,-1653874.3074819492,5083873.137195891,3593253.195256034,-178.26845721472742,-4939.325553959725,6892.854795013169,0.994939029840252,-3.4732838561487595e-05,0.00032997586749289077,0.10047993237505187
1.12,5.027322878340636e-06,0.0005716313504736732,-0.007111010818089585,-44.68021979351743,48.90118439148419,4.858481877871314,-1653875.1981188168,5083848.440563901,3593287.6599683887,-177.98628977001155,-4939.327241783835,6893.030147018046,0.994940812967968,-3.488128458376887e-05,0.00033140693211072565,0.10046226975029149
1.125,-7.2821647453855015e-06,0.0005892489289664972,-0.007067333930012703,-44.666754542546954,48.87610197745248,4.847944820370527,-1653876.0873450919,5083823.74392357,3593322.1255572694,-177.70422030667325,-4939.328890642816,6893.205405162399,0.9949425983072805,-3.50182399094565e-05,0.000332829422997026,0.10044458209309051
1.1300000000000001,-9.471937193412458e-06,0.0005407177621127795,-0.007098825459758964,-44.65504382164737,48.85947742644706,4.851285363088148,-1653876.9751612626,5083799.047274949,3593356.5920221605,-177.42224796279257,-4939.330557728686,6893.380551358427,0.9949443723484769,-3.5190200941460194e-05,0.00033429264774675356,0.10042700305281912
1.135,-5.6090884707989885e-06,0.0005926740110858646,-0.007084511051205364,-44.637136935909766,48.825909815202394,4.8457678295632185,-1653877.861567801,5083774.350618045,3593391.059362682,-177.14036745419432,-4939.332204131029,6893.555657267238,0.9949461540225715,-3.5355450436153786e-05,0.0003356346053114409,0.10040934565615549
1.1400000000000001,3.6926871624403615e-06,0.0005762103277880288,-0.007083132191388615,-44.63479023989292,48.80498174745068,4.8329098833386075,-1653878.746565284,5083749.653952938,3593425.5275784116,-176.8586256430417,-4939.333838603483,6893.730634418812,0.994947931745424,-3.5524121824841855e-05,0.0003371067678756939,0.10039172382505955
1.145,2.1744661079526733e-05,0.0005758570580181383,-0.007107771904352295,-44.62711314992199,48.78581577988063,4.835859640358269,-1653879.6301541496,5083724.9572796235,3593459.9966687495,-176.5769205982102,-4939.335487171859,6893.905500779114,0.9949497088227439,-3.5665523040319956e-05,0.00033854031374007095,0.10037410538562083
1.1500000000000001,-4.536047486219778e-06,0.0005685750678088446,-0.007101026630386461,-44.60666470401875,48.76237927169383,4.834875593439751,-1653880.5123346844,5083700.260598149,3593494.4666332817,-176.29529335286452,-4939.337102501517,6894.080312106222,0.9949514917698095,-3.576195443502184e-05,0.00033997750846294264,0.10035642561095513
1.155,-1.5903570547400632e-05,0.0005618894443529986,-0.007063055495186827,-44.59699916616186,48.73386088288475,4.8369415646462075,-1653881.3931074273,5083675.563908601,3593528.9374716887,-176.0138038388526,-4939.338716440421,6894.255050635055,0.9949532727124875,-3.592192317448793e-05,0.00034138999701844214,0.10033876260546533
1.16,3.66283629359748e-06,0.0005749949562669227,-0.007074709148898345,-44.590284287806526,48.70842336512406,4.838100696552961,-1653882.2724729788,5083650.8672111025,3593563.4091835534,-175.73241670459578,-4939.340283235648,6894.429695314903,0.9949550438210303,-3.610845781290586e-05,0.00034278300766089827,0.10032119402738694
1.165,-1.7012500399974074e-05,0.0005812515178844732,-0.0070789679361199466,-44.57635869859709,48.685540952513016,4.831928716767488,-1653883.1504318004,5083626.170505876,3593597.881768426,-175.45111197499386,-4939.341807469823,6894.604253629692,0.9949568175301378,-3.624962009023324e-05,0.00034421352294481175,0.10030359641267043
1.17,1.8211840386256006e-05,0.0005559250065120027,-0.007075427217917534,-44.56292234724977,48.66260883764226,4.832362558243263,-1653884.0269843503,5083601.47379301,3593632.3552258634,-175.16990801077273,-4939.3433386438455,6894.778721436771,0.9949585919864056,-3.644378257803787e-05,0.00034565441572933527,0.10028598819029955
1.175,-2.1438986298355624e-05,0.0005865231843677338,-0.007084385182012581,-44.560187767495435,48.64575357948136,4.814245007076595,-1653884.9021311484,5083576.77707254,3593666.8295554584,-174.88881118113807,-4939.344849623878,6894.953116594908,0.99496036526658,-3.654397535787706e-05,0.00034704114292187244,0.10026838871537086
1.18,-3.9629331661833804e-07,0.0005623420734242537,-0.007072443733440393,-44.55153010634187,48.61574019145337,4.823266983664981,-1653885.7758725232,5083552.080344401,3593701.304756758,-174.60773873697565,-4939.346405545838,6895.127403071706,0.9949621404483504,-3.6750473475626746e-05,0.00034849403981085847,0.1002507669583827
1.185,-5.4205987578987315e-06,0.0005666016392722956,-0.00704951434456141,-44.53287773541236,48.591651117809164,4.813218565534482,-1653886.6482088093,5083527.383608685,3593735.7808292857,-174.326775722445,-4939.34788137323,6895.3016082086515,0.9949639123466466,-3.689855903357485e-05,0.00034989206332764736,0.10023317485690564
1.19,9.707123317894152e-06,0.0005782085191949623,-0.00706303612249322,-44.52345509122874,48.57774969685497,4.819400395992668,-1653887.519140578,5083502.686865515,3593770.257772584,-174.04593183775597,-4939.349386313363,6895.475710960944,0.9949656781830177,-3.706018940389727e-05,0.00035129942513041065,0.10021563976278347
1.195,1.3586733202479247e-05,0.0005792483214692742,-0.007070709606791414,-44.51526374520769,48.54276034473123,4.818671395507323,-1653888.3886683283,5083477.9901148975,3593804.7355863373,-173.7651682067542,-4939.3508608901275,6895.649790454585,0.9949674470866652,-3.718711070473493e-05,0.00035273944677407403,0.1001980709886458
1.2,-4.369736415889356e-06,0.0005558553112698902,-0.007036760258493111,-44.49543843844176,48.516209200695705,4.8076499683355385,-1653889.2567925195,5083453.293357042,3593839.214270165,-173.48450829595453,-4939.352281349899,6895.823740717072,0.9949692175992849,-3.730464901233319e-05,0.00035418302584061436,0.10018048309233797
1.205,-2.3867680349506523e-05,0.0005465934234303825,-0.007052433553224656,-44.4896626260207,48.495910170547376,4.812048536524045,-1653890.1235137302,5083428.59659201,3593873.693823459,-173.20397594017862,-4939.353731453604,6895.997576838011,0.9949709793168765,-3.7460963776205954e-05,0.00035556392243033506,0.10016297962914764
1.21,1.9611376351606925e-05,0.0005769429704269302,-0.007065554914463925,-44.4785553121506,48.46478650715857,4.803271970085722,-1653890.9888324616,5083403.899819841,3593908.1742457906,-172.9235166401372,-4939.355136038216,6896.171355686081,0.9949727446550881,-3.766347293574968e-05,0.000356916896736818,0.10014543716671565
1.215,-9.575009372693818e-06,0.0005661329109254162,-0.007020433456876798,-44.460706128272506,48.43331480146895,4.808947414988476,-1653891.8527491454,5083379.203040668,3593942.655536682,-172.64315681627338,-4939.356533103154,6896.345000836486,0.9949745129435889,-3.776544102225924e-05,0.0003583562476989822,0.10012786199275125
1.22,9.18923524284788e-06,0.0005691029379446323,-0.007054355696871559,-44.45741280534924,48.41918144364751,4.806031615998377,-1653892.715264402,5083354.506254639,3593977.137695576,-172.36294592953192,-4939.357878632868,6896.518556900006,0.9949762696337292,-3.7937261977526735e-05,0.00035976140754917307,0.10011039905145913
1.225,-1.8669602648833526e-05,0.0005593613762776665,-0.007035344615830417,-44.44131197042029,48.39631993301556,4.796577622272727,-1653893.5763787082,5083329.809461901,3594011.6207221136,-172.08277647820333,-4939.359216522451,6896.6920582089815,0.9949780345029189,-3.806318181196127e-05,0.00036117864807603937,0.10009285168226009
1.23,-3.469814411099012e-06,0.0005804517394485936,-0.007049118140826922,-44.42629253813905,48.36772483417345,4.805515562325768,-1653894.4360924324,5083305.112662413,3594046.1046159132,-171.80271321738218,-4939.360578702021,6896.865461620554,0.9949797943104592,-3.8255944146216855e-05,0.0003625646875231876,0.1000753515969163
1.235,-2.71950046773534e-05,0.0005721495361278034,-0.007055058851694058,-44.425723557365345,48.3394265839558,4.799173660728067,-1653895.2944061784,5083280.415856273,3594080.5893765534,-171.52278516604395,-4939.36187731391,6897.03879433828,0.9949815572358904,-3.8416186811367326e-05,0.0003640069895633227,0.10005781720360818
1.24,1.0563330697520947e-05,0.0005750455349408994,-0.0070435223005894275,-44.4124642339519,48.32071298648882,4.796213037321113,-1653896.1513204097,5083255.7190437205,3594115.0750035467,-171.2429073451209,-4939.363143657394,6897.2120029706475,0.994983321341302,-3.8633373436680106e-05,0.00036542270484416314,0.10004026802413495
1.245,-1.601968419112722e-07,0.0005873974986490916,-0.007041241853939892,-44.395619816649656,48.29903222428508,4.783119661823745,-1653897.0068354877,5083231.02222483,3594149.56149642,-170.96312383530332,-4939.364412438437,6897.385146340107,0.9949850822513465,-3.875735151702104e-05,0.00036685506818626964,0.10002274747530115
1.25,2.143433085077217e-06,0.0005796424922529781,-0.00704510868452665,-44.3871672727725,48.26683024943687,4.77942284170687,-1653897.8609519047,5083206.325399489,3594184.0488547534,-170.6834430340942,-4939.365724048153,6897.5581870124215,0.9949868422682657,-3.891109056197725e-05,0.00036831547519219346,0.10000523257641622
1.2550000000000001,-6.447851156491697e-06,0.0005636487953668274,-0.007049380498972573,-44.36212714753591,48.25138282946761,4.776157840757424,-1653898.7136701578,5083181.628567679,3594218.537077975,-170.4038582122327,-4939.367000094636,6897.731101613245,0.9949886029487052,-3.905716409860771e-05,0.00036975716732128743,0.09998770802633222
1.26,-1.1287984763159925e-05,0.0005684083093367267,-0.0070346230849346325,-44.353421275055766,48.21506409183201,4.776526110726833,-1653899.5649908392,5083156.9317294,3594253.0261656614,-170.12441431049203,-4939.368311330991,6897.903973054734,0.9949903644000375,-3.922061421389228e-05,0.0003711569274953919,0.09997017282849471
1.2650000000000001,-1.2242180179428978e-05,0.0005604154706891843,-0.00700839615827063,-44.336778567609656,48.18817947566187,4.784839105885943,-1653900.4149145752,5083132.234884717,3594287.516117377,-169.84508010573748,-4939.369562062453,6898.07671325669,0.9949921218478491,-3.939727986298752e-05,0.0003725673185045699,0.09995267431220889
1.27,4.489595198114067e-06,0.0005710016119281871,-0.0070379364475211086,-44.33103353264819,48.161844169993735,4.77778189129673,-1653901.2634419866,5083107.538033914,3594322.0069326335,-169.56588448595664,-4939.370758885776,6898.2493892683815,0.9949938724408078,-3.957429734994011e-05,0.00037395759151670623,0.09993524100556445
1.2750000000000001,1.4290792645361289e-05,0.0005634206669139694,-0.007030511585202821,-44.316776749431256,48.140339691247746,4.77740671980235,-1653902.1105735924,5083082.841177164,3594356.498610985,-169.28675779578887,-4939.37194131246,6898.421951335175,0.9949956300970855,-3.971236722815039e-05,0.0003753783745893941,0.0999177341702051
1.28,5.927426447594456e-06,0.0005453155271982319,-0.007054118763242416,-44.296625025576475,48.1166995599711,4.7677070074260985,-1653902.9563098324,5083058.144314531,3594390.9911519755,-169.00773817877203,-4939.373111529329,6898.594444811755,0.994997385597056,-3.982415607747289e-05,0.00037678274904808813,0.09990024576456363
1.285,2.466874687486699e-06,0.0005633392677168917,-0.00702624946245143,-44.28603706121498,48.09105514674532,4.762856801169495,-1653903.8006512877,5083033.447445969,3594425.484555187,-168.72884393144489,-4939.374313416585,6898.766839777337,0.9949991466988288,-3.995224920030473e-05,0.00037813999586637704,0.09988269861474403
1.29,-5.386299850618623e-06,0.0005856813152013081,-0.007015625962552085,-44.277415084494564,48.06488124764624,4.768715384392889,-1653904.6435985023,5083008.750571426,3594459.978820121,-168.45004195573753,-4939.3755037308865,6898.939133794091,0.9950009005139252,-4.009342472916514e-05,0.000379541215243371,0.09986522076008862
1.295,5.379714832566385e-06,0.0005634962658483181,-0.007012018837647787,-44.26420351346976,48.031241548337334,4.766959126688785,-1653905.4851519526,5082984.05369108,3594494.473946338,-168.17133811158573,-4939.376634988002,6899.111353017962,0.9950026513461413,-4.025970293854778e-05,0.00038099605081337346,0.09984776930565209
1.3,9.875430857976644e-06,0.0005493027442275225,-0.007029794945387515,-44.258438269284866,48.00993303176072,4.759233384309842,-1653906.3253121893,5082959.356805168,3594528.9699333445,-167.89275658402394,-4939.377729393963,6899.283449587346,0.9950044009921855,-4.0393659347598e-05,0.0003823983885775662,0.0998303267850357
1.305,7.065344282325146e-06,0.0005416708649945989,-0.00701278375969209,-44.23678834896817,47.98607105061591,4.755028348434224,-1653907.1640796661,5082934.659913786,3594563.4667805955,-167.61423418064683,-4939.378823589592,6899.45545076992,0.9950061547802697,-4.0512907235197856e-05,0.00038376653990890796,0.09981284001234193
1.31,-5.497185776519867e-07,0.0005417954705354587,-0.007000254410987718,-44.22732201008761,47.945924148130494,4.755762494657925,-1653908.0014548798,5082909.963016901,3594597.964487645,-167.33585128902683,-4939.3799303431115,6899.627369092308,0.9950079040221261,-4.063722452417644e-05,0.0003851150072203958,0.09979539552776376
1.315,-4.3355256392797095e-06,0.0005597855573909185,-0.006996175873461207,-44.21488990184733,47.929084060503314,4.75154361353835,-1653908.8374384798,5082885.266114656,3594632.463053923,-167.05758872210723,-4939.380967810971,6899.799142171688,0.9950096498300461,-4.078050344449852e-05,0.00038646188577413064,0.09977798218670468
1.32,2.296589615141204e-06,0.0005590878138917627,-0.006998784706167127,-44.19583134294631,47.89906457420255,4.754228519132745,-1653909.6720309807,5082860.569207198,3594666.9624789115,-166.77941166359267,-4939.382015157287,6899.970853254754,0.995011394296375,-4.0937683234572425e-05,0.0003878525710492312,0.099760578962199
1.325,-1.1789270219273154e-05,0.0005418462161109635,-0.007007671689362207,-44.18476012376256,47.868274641697745,4.741723993810987,-1653910.5052329658,5082835.87229459,3594701.4627622287,-166.50138232284283,-4939.38302840452,6900.1424735437995,0.9950131391082564,-4.107819394778828e-05,0.00038924317434019365,0.09974316921106346
1.33,5.8206922131446e-07,0.0005591578841046308,-0.006999579014975147,-44.17160583430287,47.841297459308315,4.745531919877055,-1653911.3370450384,5082811.175376895,3594735.9639032898,-166.22344671815046,-4939.384049291571,6900.313950873799,0.9950148858446196,-4.124945300634452e-05,0.0003905873751368718,0.09972573733797953
1.335,-1.1826095668053967e-05,0.0005552701348187424,-0.006985114279249616,-44.16097750170918,47.81892955743185,4.7381486545820355,-1653912.167467726,5082786.478454205,3594770.465901537,-165.9456283105215,-4939.385026595148,6900.485348049109,0.9950166302408098,-4.1394246029816844e-05,0.00039197772441836276,0.09970832555109718
1.34,1.7025879488209572e-05,0.0005686804256736669,-0.006981629380419707,-44.144316579219954,47.79448426324349,4.735831242421003,-1653912.9965015296,5082761.781526615,3594804.968756533,-165.66789313478998,-4939.386009809988,6900.656650430047,0.9950183707278998,-4.1568921589597854e-05,0.0003933553111448547,0.09969094972774546
1.345,-1.873023728125506e-05,0.0005876295524280972,-0.006963097782069972,-44.1395395827126,47.77562360068529,4.740692654397276,-1653913.8241469585,5082737.084594124,3594839.472467831,-165.39027847199077,-4939.3869865288925,6900.8278686614485,0.9950201100310243,-4.167516530787254e-05,0.0003947734475292414,0.0996735825128909
1.35,-8.671112126521593e-06,0.0005586849525223012,-0.0070042358122218255,-44.12450273629585,47.741831767898056,4.727410807438853,-1653914.6504044803,5082712.387656865,3594873.977035092,-165.11273021408317,-4939.387916954891,6900.999035779017,0.9950218443895397,-4.18750576803986e-05,0.00039622981277845766,0.09965626139914054
1.355,5.7877341771861154e-06,0.0005658872477875836,-0.006970358895037048,-44.10807083795247,47.70477162398526,4.728463994727945,-1653915.4752745503,5082687.690714925,3594908.4824578036,-164.8352978098997,-4939.388859222998,6901.17004875987,0.9950235887215823,-4.2042756890661076e-05,0.0003976166784634942,0.09963883791477682
1.36,2.878164668143871e-06,0.0005390275770123463,-0.006964589651403217,-44.099650623696746,47.67844294185189,4.726744164574904,-1653916.2987578243,5082662.993768396,3594942.988735264,-164.55801179546177,-4939.389752226907,6901.34093558427,0.9950253243037541,-4.217624925094076e-05,0.00039902506537792373,0.09962149865551177
1.365,1.9703734900383106e-05,0.0005541391505337778,-0.00697873185516882,-44.07340713645618,47.66481530336756,4.706219787806688,-1653917.1208548874,5082638.296817478,3594977.495866917,-164.28081341829758,-4939.390615133441,6901.511725500576,0.9950270581717611,-4.2310284079815735e-05,0.0004003659130081007,0.0996041737229237
1.37,5.52291075696684e-07,0.0005562435392057869,-0.0069593273515885685,-44.062771364408164,47.630966826329185,4.719530182575765,-1653917.9415662603,5082613.59986197,3595012.003852311,-164.0037357752615,-4939.391587715863,6901.682432097677,0.9950287952438542,-4.2406241246317465e-05,0.0004017485398239107,0.09958681356176426
1.375,5.461543431089919e-06,0.0005588396590484144,-0.006951953517000281,-44.05459631602104,47.60597395478424,4.7026560906900094,-1653918.760892571,5082588.902901855,3595046.512691029,-163.72678847147313,-4939.3924581989895,6901.853055082178,0.9950305271767659,-4.2550343429127615e-05,0.00040313163531432734,0.09956950165929523
1.3800000000000001,-1.410696590229619e-05,0.0005514523811246816,-0.006976920840097796,-44.030990401866575,47.57952291511512,4.70654404261512,-1653919.5788343067,5082564.205937308,3595081.0223825267,-163.44990581595962,-4939.393360860007,6902.023543967314,0.9950322569692492,-4.2682872263427376e-05,0.00040452241154222384,0.09955220806427725
1.385,-1.1726396054345272e-05,0.0005745826007498685,-0.006935799091549089,-44.01713419617406,47.54693985455487,4.710301371185675,-1653920.3953920372,5082539.5089683,3595115.5329262954,-163.173186344868,-4939.394242057874,6902.193963522074,0.995033992677437,-4.286226602975428e-05,0.00040588993831217426,0.0995348523512369
1.3900000000000001,-6.986687091047297e-06,0.0005727870698976749,-0.006949766790280054,-44.01227513440676,47.5139238187704,4.705062513668751,-1653921.2105664958,5082514.811995025,3595150.0443219054,-162.89659709639324,-4939.3950683121,6902.364280486047,0.9950357178268738,-4.30414518434591e-05,0.00040731560012612013,0.09951759889684517
1.395,1.1765054568803344e-05,0.0005585378190770212,-0.006945528962696251,-43.99240691449029,47.50033783394785,4.701981466078842,-1653922.0243582057,5082490.115017715,3595184.556568758,-162.62008687492371,-4939.395855615368,6902.534460540363,0.9950374461519126,-4.320841470068829e-05,0.0004087379729813555,0.09950031066173655
1.4000000000000001,-1.887221885080053e-05,0.000581544145530996,-0.006931546778382697,-43.975662539763476,47.46128115590095,4.7119560882055325,-1653922.8367676504,5082465.4180363985,3595219.0696664117,-162.34369107838174,-4939.396670852171,6902.7046009641235,0.9950391731371946,-4.332518198935658e-05,0.00041012956433517485,0.09948303292078167
1.405,-3.819294404423778e-06,0.0005431302420655329,-0.006949886511045615,-43.966392653295195,47.43658603141998,4.694783879734632,-1653923.6477955233,5082440.721051227,3595253.5836144947,-162.0674580023815,-4939.397397575464,6902.874632212636,0.9950408963166674,-4.352386999448235e-05,0.00041157076784713244,0.09946578996066448
1.41,1.1640695428411263e-05,0.0005569513134719465,-0.006943019195393542,-43.9450060745477,47.416936790548704,4.694663619419334,-1653924.4574424021,5082416.024062333,3595288.0984124015,-161.79129351725274,-4939.398160512617,6903.044530577559,0.9950426237961811,-4.367557899494978e-05,0.00041292015385403606,0.09944850133713407
1.415,-4.4240671680064544e-06,0.0005608642791405517,-0.0069667555384082215,-43.93471802077283,47.38152711573238,4.680739833670128,-1653925.265708798,5082391.3270696085,3595322.6140596634,-161.51526489633656,-4939.398928875071,6903.214374161642,0.9950443492537849,-4.379225873301058e-05,0.00041430776555540053,0.09943122974913456
1.42,1.0633329860169266e-05,0.0005370071354741529,-0.006952395891518834,-43.92221319966591,47.34962704478524,4.694485042493226,-1653926.0725952922,5082366.630073042,3595357.130555727,-161.2393327636204,-4939.399698070489,6903.384051247875,0.9950460803031502,-4.394989859870426e-05,0.0004157011151202251,0.09941389910030729
1.425,8.273284685158851e-06,0.0005503704825636134,-0.006956854361484475,-43.910152010687575,47.32027504966191,4.6786539963525975,-1653926.878102465,5082341.933072867,3595391.647899993,-160.96353634435175,-4939.400371702399,6903.553655304208,0.9950478075069933,-4.406413718879206e-05,0.00041703886102933057,0.09939660412944647
1.43,-1.76744630605823e-05,0.0005694458227153313,-0.006924221055288383,-43.89268080516849,47.28883870689134,4.682609437213089,-1653927.6822308835,5082317.23606926,3595426.1660919157,-160.68783107422976,-4939.401071259155,6903.723113578534,0.995049535501901,-4.418757198660933e-05,0.0004184092627923151,0.09937929803836663
1.435,-6.621968780747347e-06,0.0005728020229911172,-0.00692023806304914,-43.880985129519644,47.26545908016105,4.676256835133091,-1653928.484981137,5082292.539062269,3595460.685130893,-160.41227038585973,-4939.401725021123,6903.892477366758,0.9950512550647695,-4.438026010647723e-05,0.00041982067363197567,0.09936207312159684
1.44,4.294878988482407e-06,0.0005543324097622231,-0.006919055992459778,-43.861367869433884,47.23499712988273,4.677181660755924,-1653929.2863538149,5082267.842052006,3595495.205016451,-160.13680067717019,-4939.402380314605,6904.061745812088,0.9950529733359155,-4.454628323439195e-05,0.00042124317926206897,0.0993448580710981
1.445,-1.6420612560532055e-05,0.0005526993559225375,-0.006918250252388511,-43.850914749389695,47.20835918552495,4.665874506849482,-1653930.0863495152,5082243.145038534,3595529.725748108,-159.86147951531348,-4939.403008331126,6904.230916961423,0.995054691034391,-4.468056084670353e-05,0.0004226224506197398,0.09932764592178964
1.45,1.8122250559900787e-06,0.0005495047888834959,-0.006903478427084027,-43.82628673435677,47.178113304431555,4.658667029786893,-1653930.8849688221,5082218.448021895,3595564.247325312,-159.58624319801024,-4939.403647340025,6904.399964642454,0.9950564082325971,-4.486596469336748e-05,0.00042399251544293317,0.09931043576903276
1.455,-4.353019305350593e-06,0.000563527008474056,-0.00690205629572371,-43.82260377720181,47.14765039709578,4.662567541822745,-1653931.6822123479,5082193.751002022,3595598.7697474663,-159.31116706368988,-4939.404301865464,6904.568897220672,0.9950581214698287,-4.5005202979311094e-05,0.00042535916163725316,0.09929326231447347
1.46,-1.0366758103218904e-05,0.0005786154363420207,-0.0069431582778000074,-43.80505207016792,47.12663079971363,4.675976556020306,-1653932.4780806948,5082169.053979055,3595633.293014029,-159.03617172331616,-4939.404884798661,6904.737727756588,0.9950598340401794,-4.516325746047511e-05,0.00042675915975473106,0.09927609237288912
1.465,4.607205572458638e-06,0.0005680919039996941,-0.006871778624869077,-43.78459180646098,47.09372398077863,4.655148310757919,-1653933.272574411,5082144.356953321,3595667.8171246797,-158.76131478380714,-4939.405408731908,6904.906532540737,0.9950615564947961,-4.5340060654861494e-05,0.00042819519527286984,0.09925882015875112
1.47,-6.27580919597903e-06,0.00054184237219396,-0.006906942498908518,-43.77520110452122,47.06674146277043,4.648395943635534,-1653934.0656941645,5082119.659924831,3595702.342078936,-158.48658657811092,-4939.405987191563,6905.0751699371685,0.9950632609509379,-4.547692600205603e-05,0.0004296087755920699,0.09924172546784342
1.475,-1.212291352942531e-05,0.000535338169525132,-0.0068943339120150215,-43.756254086374796,47.036374686470545,4.658464127727256,-1653934.857440493,5082094.962893475,3595736.867876096,-158.2119448538423,-4939.406555644663,6905.243694265871,0.9950649738612442,-4.563438970076989e-05,0.0004309543518004345,0.09922454328627982
1.48,-2.666169330136445e-05,0.0005545842713530897,-0.006865647337103157,-43.74212794916648,47.01267123318197,4.66152186334796,-1653935.6478140056,5082070.265859436,3595771.3945156983,-157.93746017621018,-4939.407059606653,6905.412146626649,0.9950666833522338,-4.580477198189295e-05,0.0004322822986169508,0.09920739244795486
1.485,-5.895246683969808e-06,0.0005610993122123079,-0.006882907695563667,-43.729823767569535,46.98103456170041,4.6410022449571064,-1653936.436815381,5082045.568822957,3595805.9219973916,-157.66308997301883,-4939.407532181882,6905.580530528122,0.9950683854097273,-4.601606427509383e-05,0.000433654520590418,0.0991903129562415
1.49,2.6224309940084423e-05,0.0005398696091337736,-0.006888230875047743,-43.70517571343955,46.95003104662058,4.642104500163938,-1653937.2244451307,5082020.871784016,3595840.4503205833,-157.38880991499641,-4939.408044259256,6905.748746274931,0.9950700914468676,-4.6177330753198134e-05,0.00043504809730315956,0.09917319047368353
1.495,-9.476027893033212e-06,0.0005532311547560752,-0.006910779914016197,-43.68954364996813,46.916988878542355,4.63611107921709,-1653938.0107039106,5081996.174742562,3595874.979484617,-157.11470209026336,-4939.408537298118,6905.916867007362,0.9950717985338519,-4.625343643826513e-05,0.00043639682416244394,0.09915605468672577
1.5,4.2757346913285126e-06,0.0005411719088983791,-0.006861996559504104,-43.67406185637104,46.889848603027175,4.638359051816792,-1653938.7955924673,5081971.477698678,3595909.509488927,-156.84072053848047,-4939.409016130727,6906.084857244861,0.9950735108939,-4.6421689904254976e-05,0.0004377699377650949,0.09913886281270345
1.5050000000000001,9.445396477254499e-07,0.0005430304504386137,-0.006877186822368628,-43.658363271522205,46.86010194538089,4.636398026351545,-1653939.57911143,5081946.780652484,3595944.04033298,-156.56686463737233,-4939.409461600536,6906.252763903093,0.9950752108811302,-4.6552691080158205e-05,0.0004391164656436685,0.09912179225302027
1.51,1.1332598474643077e-05,0.0005565071454473351,-0.006872192022855716,-43.64533191740603,46.82573844000526,4.63071793154964,-1653940.361261428,5081922.083604119,3595978.5720163016,-156.293134566445,-4939.40988467834,6906.420564737086,0.9950769143348266,-4.669245644694504e-05,0.00044046678961052804,0.09910468387872512
1.5150000000000001,1.1881781261491597e-05,0.0005550990150329769,-0.006858509375605405,-43.63629763900577,46.79474265595859,4.628639573470518,-1653941.1420430692,5081897.386553696,3596013.1045382847,-156.01952181366252,-4939.410283952306,6906.588228419125,0.9950786162415657,-4.680971301490633e-05,0.00044185321366292543,0.09908758788748086
1.52,8.007884894463932e-07,0.0005457160271666769,-0.006860695690142413,-43.61999915858042,46.76387239844793,4.618093277393976,-1653941.9214568913,5081872.689501375,3596047.6378982943,-155.74600704440422,-4939.410644785962,6906.75577545342,0.9950803144654191,-4.692523943393497e-05,0.0004432362722273479,0.09907052590468818
1.5250000000000001,4.183253659615474e-06,0.0005538842980015178,-0.0068552330359426,-43.59026983916835,46.74904678162877,4.618774049258572,-1653942.6995034383,5081847.9924472235,3596082.1720957044,-155.47261175579865,-4939.411015655171,6906.923188566615,0.9950820129453419,-4.7066010512311934e-05,0.0004445932438383472,0.09905345846705545
1.53,8.761708358248175e-06,0.0005475573515384046,-0.006860504896730955,-43.58347807879552,46.705578127521555,4.623540621633774,-1653943.4761834228,5081823.295391143,3596116.707130114,-155.19938204034435,-4939.411416707029,6907.090575285275,0.9950837097694643,-4.720038366816764e-05,0.00044597137382122796,0.09903640458487067
1.5350000000000001,4.420349841507505e-06,0.0005496064122266281,-0.006861810482595454,-43.56236652389156,46.67048225460725,4.6216215401109135,-1653944.251497556,5081798.598333304,3596151.243001082,-154.9262712539448,-4939.411719023012,6907.257811943625,0.995085407612065,-4.732180632851885e-05,0.00044733489703092493,0.09901933755417236
1.54,-3.5384686454090053e-06,0.0005300211182399049,-0.006852621340845515,-43.54591024108042,46.645274171050275,4.605807260649356,-1653945.0254465346,5081773.901274012,3596185.779707926,-154.65332016245972,-4939.4119974710775,6907.424925530868,0.9950871054804084,-4.745453773280077e-05,0.00044870244273357293,0.09900226725084321
1.545,-1.3273738493547284e-06,0.0005507760376353454,-0.006845506443276682,-43.52465056251577,46.61672275290785,4.610921304260329,-1653945.7980310158,5081749.204213219,3596220.3172500236,-154.38047235770944,-4939.412320060717,6907.591913570626,0.9950888008011598,-4.760221063792397e-05,0.00045001929685725955,0.09898521978948102
1.55,1.605314052425732e-05,0.0005499648008455801,-0.006860372446869612,-43.51522564575459,46.58935195514963,4.612660967531209,-1653946.5692516523,5081724.507150902,3596254.8556268695,-154.10778224493683,-4939.412606444664,6907.758824883702,0.9950904940445872,-4.774951101093891e-05,0.00045138833132877827,0.09896818999384673
1.555,2.793722226788816e-06,0.0005249028519803577,-0.006836175067537436,-43.49697777351165,46.5570579723109,4.605736664145979,-1653947.3391090836,5081699.810087265,3596289.394838045,-153.8351902329236,-4939.412848437006,6907.925645196977,0.995092190675197,-4.7853389467453396e-05,0.00045275964605242765,0.0989511231669124
1.56,-1.041211477185361e-05,0.0005399791047019592,-0.00684436295482424,-43.48088172929045,46.53114827809874,4.608147502836313,-1653948.1076038931,5081675.113022427,3596323.9348830017,-153.5627336000497,-4939.413086850868,6908.092337472381,0.9950938810532152,-4.7984026609908396e-05,0.0004540653360775319,0.0989341165253594
1.565,-1.0923135829758372e-05,0.0005475183858620129,-0.006816496201620684,-43.46880434493684,46.50389366167011,4.593011042321015,-1653948.8747367354,5081650.415956472,3596358.475761225,-153.2904032551363,-4939.413295212323,6908.258951956477,0.9950955731449265,-4.815125454115391e-05,0.0004554052644343693,0.09891708949859032
1.57,2.9581671742140062e-05,0.000516347802403278,-0.006839784091818196,-43.44206773830257,46.460388425540216,4.594756145892724,-1653949.640508146,5081625.718889405,3596393.017472182,-153.01816100087612,-4939.413531364852,6908.425430843757,0.9950972580447444,-4.832158642795857e-05,0.0004567638254035974,0.09890013176767594
1.575,-4.6318306865492165e-07,0.0005583140096024043,-0.006836620398886492,-43.4367057162183,46.42916160932341,4.593742634819537,-1653950.4049188567,5081601.0218212735,3596427.5600151774,-152.7461233194546,-4939.413721256644,6908.591767195705,0.9950989484512544,-4.838347239886251e-05,0.0004580548538473349,0.09888311603099041
1.58,7.715073445614536e-06,0.0005437718771115008,-0.006821328166989859,-43.40989195557497,46.39772475059558,4.583258594055325,-1653951.167969587,5081576.32475232,3596462.10338956,-152.47416878657273,-4939.413860392121,6908.757985834107,0.9951006377313586,-4.8530473114579677e-05,0.00045944285653852046,0.09886610816502475
1.585,-1.2387881403193175e-05,0.0005402884879923143,-0.006811621706406129,-43.39747817516413,46.377558205028,4.575384541270338,-1653951.9296609638,5081551.6276825955,3596496.6475947164,-152.20238194405118,-4939.414029391111,6908.924076862448,0.99510232295752,-4.8653516470503175e-05,0.0004607967051179646,0.09884913830570005
1.59,-8.944032077713129e-06,0.0005427106698057627,-0.006825910089213838,-43.384120882485846,46.3484607701954,4.5826363554641265,-1653952.689993622,5081526.930611986,3596531.1926301126,-151.9306813628006,-4939.414214507933,6909.090081648217,0.9951040054957532,-4.882569904807992e-05,0.00046213692102245945,0.0988321925883736
1.595,-7.696587056411015e-06,0.0005600548374194433,-0.006824327337252901,-43.36849534485905,46.30489212171048,4.5750506705678875,-1653953.448968092,5081502.233540606,3596565.738495334,-151.65910661857808,-4939.414337504766,6909.256006935876,0.9951056912709895,-4.898992912255918e-05,0.00046348401176272036,0.09881521129180365
1.6,6.1905913831331615e-06,0.0005623464360854078,-0.006820781886448293,-43.34750104651616,46.28433281067128,4.577323667475142,-1653954.2065850452,5081477.536468691,3596600.285189737,-151.38767462789414,-4939.414428148406,6909.421754270711,0.995107376343676,-4.915533866859915e-05,0.0004648745589271224,0.09879823390022098
1.605,-1.5339813311795725e-05,0.000549683797947232,-0.006814275034193456,-43.32311431776407,46.24177681796577,4.569971081152244,-1653954.9628451846,5081452.839396342,3596634.8327127458,-151.11638116140642,-4939.414511527159,6909.587449105138,0.995109060248239,-4.928676201026942e-05,0.0004662742374296612,0.09878126528354089
1.61,-5.9897271823224774e-06,0.0005288435972051611,-0.006813919008711984,-43.312553123289355,46.21777229677157,4.5693021845094615,-1653955.7177493083,5081428.1423236085,3596669.3810638133,-150.84526828397605,-4939.414581801266,6909.752977871768,0.995110742267027,-4.9468613425988846e-05,0.00046763709783121695,0.09876431285220168
1.615,2.3998283818812694e-06,0.0005042502316145643,-0.006791774097553105,-43.299610154781895,46.18634620910927,4.560405152922453,-1653956.4712981025,5081403.445250587,3596703.9302423163,-150.5742494054141,-4939.414627161743,6909.918423397001,0.9951124239328382,-4.9622057812903865e-05,0.0004689504210082519,0.09874736126937965
1.62,-8.10632264878082e-06,0.0005266202613050122,-0.006798309462911389,-43.274724755878246,46.15721169399677,4.56248686473095,-1653957.2234920706,5081378.748177349,3596738.480247711,-150.30333786132107,-4939.414667798437,6910.08373442627,0.9951140998721543,-4.9748533520896575e-05,0.0004702046350031291,0.09873046474273663
1.625,1.7716504719346883e-06,0.000532845529762411,-0.006789876499749226,-43.26579804846824,46.1182921456111,4.552686640962103,-1653957.9743319084,5081354.051103954,3596773.0310794483,-150.03259729022045,-4939.414690091087,6910.248960633859,0.9951157771081446,-4.990667545298e-05,0.0004715119066856829,0.09871355193842041
1.6300000000000001,3.7103894260500805e-06,0.0005455335672514428,-0.006781577547489326,-43.247598742968655,46.10120817779531,4.545890330678761,-1653958.7238182973,5081329.354030514,3596807.5827368903,-149.76195817551329,-4939.41468573357,6910.414016070735,0.995117451968075,-5.0041769408628603e-05,0.00047283710416521013,0.0986966600724684
1.635,6.172026190233434e-06,0.0005630702534603477,-0.0067683870734760575,-43.22353087521119,46.058375689731804,4.5471948527930905,-1653959.4719517604,5081304.65695702,3596842.135219444,-149.49142712229963,-4939.41471209161,6910.579005407775,0.9951191244773607,-5.017516102454049e-05,0.00047419434613252563,0.09867978882013476
1.6400000000000001,-9.43823844391426e-06,0.0005178589218712605,-0.00679275168553848,-43.2029450388676,46.01722755149182,4.548478754791082,-1653960.218733045,5081279.959883515,3596876.688526586,-149.22108675983674,-4939.414689875541,6910.743851403384,0.9951207934246938,-5.0306739225516834e-05,0.0004755958246315343,0.09866295034941694
1.645,5.412026926647419e-06,0.0005482220238389533,-0.0067713693710232305,-43.1850659553655,45.99758843897417,4.543135727283692,-1653960.964163058,5081255.262810251,3596911.2426576097,-148.95091841019388,-4939.4146159023585,6910.908558009633,0.9951224681457608,-5.0466029920124166e-05,0.0004768809727014364,0.09864605126008398
1.6500000000000001,-7.618814275990472e-06,0.0005148293751824221,-0.006764013394521988,-43.176198316213856,45.958737012450094,4.549690828277603,-1653961.7082425118,5081230.56573731,3596945.7976119844,-148.6808630781704,-4939.414560384567,6911.073191901082,0.9951241372714554,-5.059583852654933e-05,0.0004782453231436198,0.0986292053157358
1.655,1.165352192378676e-05,0.0005320255949639032,-0.006770296927822434,-43.158506981989106,45.935215145875084,4.53983519133444,-1653962.4509719939,5081205.868664875,3596980.3533892166,-148.41092978616228,-4939.414413717171,6911.237700954757,0.9951258043350175,-5.074982285902091e-05,0.00047952338674801917,0.09861237766305773
1.6600000000000001,1.8737906657478563e-05,0.0005338837848374969,-0.006770016453407693,-43.131832025666796,45.90672576135732,4.538853747538166,-1653963.1923520928,5081181.171593105,3597014.9099887405,-148.14110975180049,-4939.414293918441,6911.402108695389,0.9951274726429702,-5.0860108112278425e-05,0.00048084898164947067,0.09859553432443545
1.665,1.2420179838429572e-05,0.0005485910777587445,-0.006767640896699329,-43.11897976731719,45.86439642661465,4.524461741977195,-1653963.9323835261,5081156.474521939,3597049.46741008,-147.87146359150952,-4939.414172875314,6911.566427055663,0.9951291405936149,-5.095322637207988e-05,0.000482180945509208,0.09857869164641034
1.67,-1.186164316510026e-05,0.0005423818020726592,-0.006797999395521053,-43.09962681726058,45.83520553967258,4.528069375142167,-1653964.6710670267,5081131.777451398,3597084.0256525255,-147.60193661127997,-4939.414043315412,6911.73055106636,0.995130807653492,-5.106568370295319e-05,0.0004835479416888941,0.0985618548556824
1.675,1.1584199489884545e-05,0.0005218861419963762,-0.006776905335110491,-43.082445815595236,45.799569436080375,4.5139986002269215,-1653965.4084032625,5081107.0803815955,3597118.584715377,-147.3325577515661,-4939.413877839712,6911.894589736587,0.9951324819102559,-5.123705669954001e-05,0.0004848935030953392,0.09854494253988298
1.68,8.33615707493457e-06,0.0005381477926593614,-0.0067470278182381145,-43.06826175961825,45.77554177748417,4.515786120277028,-1653966.144392922,5081082.383312584,3597153.1445980156,-147.0633060079637,-4939.413726872868,6912.0584656738365,0.9951341507097898,-5.1345025452273126e-05,0.00048619385349364517,0.09852808264819968
1.685,8.731311628074758e-06,0.0005459224733446491,-0.006740929177148806,-43.04382311710526,45.73897631255004,4.510186930044093,-1653966.879036606,5081057.686244395,3597187.70529985,-146.7941676179073,-4939.413548531853,6912.2222679577035,0.9951358118435697,-5.146504404254855e-05,0.00048753386383863594,0.09851129706039016
1.69,2.413024857159104e-06,0.0005113375918931265,-0.006746558661039035,-43.032832562019806,45.70674686056227,4.513665417090522,-1653967.6123350286,5081032.989177113,3597222.266820353,-146.52520144653369,-4939.413363906561,6912.385933243547,0.9951374711812586,-5.158598683846254e-05,0.0004888933143047156,0.09849452661535552
1.695,1.4272070984710151e-05,0.0005226159676752,-0.006731960174323743,-43.016204491443425,45.678421922265024,4.507755844083421,-1653968.3442889098,5081008.292110905,3597256.82915892,-146.256351023105,-4939.413119763054,6912.54949364302,0.9951391316619908,-5.1714139356128e-05,0.0004901651663346458,0.09847774214905945
1.7,1.0517923298601316e-05,0.000541369834689885,-0.006746257104554766,-42.98982265644759,45.6435522992552,4.508608301695934,-1653969.074898844,5080983.595045921,3597291.3923150124,-145.98762263998378,-4939.412873626689,6912.712943311249,0.9951407882522266,-5.181554714015987e-05,0.0004914679986249094,0.09846099395746805
1.705,-1.153721431953709e-05,0.0005283129772117783,-0.0067251582000434655,-42.96940391973012,45.60482237424035,4.500091481101556,-1653969.8041656017,5080958.897982228,3597325.956288077,-145.71908044373646,-4939.412603627226,6912.876282445011,0.9951424480539286,-5.193092855030292e-05,0.0004928165616750149,0.09844421017129158
1.71,-1.8147785690389102e-06,0.0005154310608577117,-0.006696257241023263,-42.95383446654038,45.56680705536069,4.509324971794585,-1653970.532090034,5080934.200919905,3597360.521077444,-145.45069247691845,-4939.412325613628,6913.039464337341,0.9951441023922268,-5.209794052995432e-05,0.0004941272157394142,0.0984274788769307
1.715,1.0236971173062324e-05,0.0005289036550218587,-0.006723679385543507,-42.929712670863694,45.546039413754336,4.49479427934403,-1653971.2586729114,5080909.5038591875,3597395.0866824486,-145.18245846330822,-4939.411961402571,6913.202537561998,0.995145749354294,-5.223755889511046e-05,0.0004954082174074808,0.09841081944591346
1.72,-7.313334890891202e-06,0.0005352886356960357,-0.006708243031275547,-42.901223337951485,45.50688107794423,4.498560300992029,-1653971.9839149464,5080884.80680013,3597429.653102574,-144.91435557197065,-4939.411661799446,6913.3655126450385,0.9951474027661088,-5.235054271212935e-05,0.0004967256983975856,0.09839409174777362
1.725,6.396097985959543e-06,0.0005285720955109839,-0.006705151572273057,-42.886649484374175,45.471486068201244,4.482512465058169,-1653972.7078169845,5080860.109742672,3597464.2203372796,-144.64645967518737,-4939.411321225469,6913.528369571047,0.9951490520882877,-5.250874080985888e-05,0.0004980547491433137,0.09837740244630042
1.73,-2.6609459473828904e-06,0.0005100747617103444,-0.0067147057597472595,-42.87341551501823,45.44536917832922,4.485494346950541,-1653973.430379824,5080835.412686874,3597498.7883858457,-144.37867607044873,-4939.410998030305,6913.691056934599,0.995150700378785,-5.2631175831179916e-05,0.0004993704620034609,0.09836072079196477
1.735,-1.510247981976402e-06,0.0005250536547683562,-0.006702806095200736,-42.85344068183203,45.40869864704195,4.473594532034138,-1653974.1516040307,5080810.715632789,3597533.3572476497,-144.11100669172524,-4939.4106358697045,6913.8536645834465,0.9951523507588665,-5.27716070466162e-05,0.0005006379272349873,0.09834401535388503
1.74,3.7815692180218326e-06,0.0005356175997150588,-0.006705333586401954,-42.82588901698634,45.366267266114654,4.481930735642162,-1653974.8714902513,5080786.018580493,3597567.9269220945,-143.84348145063393,-4939.4102828281775,6914.016113434531,0.9951539979131012,-5.29128432653182e-05,0.0005019429425069981,0.09832733948950835
1.745,1.6871565441087614e-05,0.0005485182241777147,-0.006688147443970511,-42.818335677326935,45.341742503261976,4.471132759891095,-1653975.5900393813,5080761.321530132,3597602.497408485,-143.57617063400693,-4939.409861311542,6914.178442780644,0.9951556453947914,-5.304351401959946e-05,0.0005032755400086706,0.09831065730119294
1.75,1.0757147145920711e-05,0.0005451570363157863,-0.006712352502613575,-42.792651300406796,45.303907525303615,4.4635740265906225,-1653976.307252128,5080736.624481861,3597637.0687062317,-143.30892795716457,-4939.409447187872,6914.340655736245,0.9951572883572728,-5.314476734858588e-05,0.0005046434521858767,0.09829401782417758
1.7550000000000001,-2.534711019717303e-06,0.0005359683662642512,-0.006686772467172642,-42.785863359264134,45.2813183408402,4.464126751706387,-1653977.0231291046,5080711.927435658,3597671.6408146755,-143.0418627001755,-4939.409033941033,6914.50272189904,0.9951589369901267,-5.3260437258042e-05,0.000506001496201266,0.0982773181079579
1.76,2.281629517924336e-06,0.0005088973389269638,-0.006691152613663568,-42.76072074624354,45.23839683085375,4.455929792622533,-1653977.7376709445,5080687.230391608,3597706.2137332573,-142.77487329119242,-4939.40858624602,6914.664710673662,0.9951605790670045,-5.3406885977604287e-05,0.00050733341729156,0.0982606820225292
1.7650000000000001,-2.063113982449508e-06,0.0005431300414830145,-0.0066928872942352505,-42.739982709264375,45.20492777328963,4.453389199695079,-1653978.4508782953,5080662.533349819,3597740.787461358,-142.50806706030966,-4939.408129122162,6914.82652971958,0.9951622219748665,-5.3534707613011046e-05,0.0005085991707484587,0.09824403500958816
1.77,2.23930346141369e-06,0.000523015092771477,-0.006671325613177279,-42.72578530475924,45.16837612374228,4.4578452814307825,-1653979.1627519997,5080637.836310363,3597775.3619982568,-142.24141467378476,-4939.407653106536,6914.988229705598,0.995163864984412,-5.3681748647543694e-05,0.000509949024447973,0.09822738365420043
1.7750000000000001,-1.9344510739310077e-05,0.0005432713240929435,-0.006675774356609961,-42.70153475707001,45.140109571880814,4.449917874556425,-1653979.8732927896,5080613.139273455,3597809.937343362,-141.9749012199373,-4939.407110156668,6915.14981239968,0.9951655024458249,-5.381311855570991e-05,0.0005112498932607095,0.09821078591195527
1.78,-1.9872866309935675e-06,0.0005288663154350457,-0.0066631930671166234,-42.67960821282927,45.09415090087928,4.446159324590502,-1653980.5825013956,5080588.442239208,3597844.513496105,-141.70854120118162,-4939.4065886540875,6915.31128492595,0.9951671406919548,-5.400316625411328e-05,0.0005125958576798871,0.09819417709897006
1.7850000000000001,-1.4951935169573039e-05,0.0005273693152974938,-0.006646669694512584,-42.65817426428479,45.06573209285085,4.446944299378024,-1653981.2903786509,5080563.74520767,3597879.0904557803,-141.4423609656605,-4939.406026638968,6915.472585142137,0.9951687755919063,-5.414647824696516e-05,0.0005139102461218613,0.09817759953942548
1.79,-1.347234685828828e-06,0.0005274085928411666,-0.0066657848017292656,-42.643092741266656,45.03529244400439,4.442344809330262,-1653981.9969253857,5080539.048178989,3597913.668221735,-141.17633296141474,-4939.405445624855,6915.633796640595,0.9951704061592643,-5.4321656599731844e-05,0.00051521773014273,0.09816106307825452
1.795,-9.54620088424417e-06,0.0005363172187378365,-0.006670080269284604,-42.634324676150555,44.99963285236448,4.439552019084852,-1653982.7021422815,5080514.351153253,3597948.246793454,-140.9104252903811,-4939.40484920627,6915.794890987352,0.9951720411420151,-5.44630217090222e-05,0.0005165286477734013,0.09814447901522987
1.8,-2.8602351973888138e-06,0.0005146267896016008,-0.006677028981468789,-42.5931052346785,44.963029677249416,4.432514294911682,-1653983.4060298975,5080489.654130616,3597982.8261702987,-140.64462118667515,-4939.40420535377,6915.9558469421845,0.995173676887785,-5.462697663584872e-05,0.0005178597170051412,0.09812788424731042
1.805,-3.795075615729146e-06,0.0005070077165712345,-0.006645431045746929,-42.58689422571922,44.925270179739755,4.433544057422183,-1653984.1085891072,5080464.957111116,3598017.4063516036,-140.3790626869974,-4939.403594777007,6916.116674975504,0.9951753140884784,-5.476898521108265e-05,0.0005191384609817491,0.09811127215827498
1.81,1.5337224004065559e-06,0.0005020706815371357,-0.006670156800945004,-42.572483942098074,44.89625273790358,4.429604637904332,-1653984.809820776,5080440.260094849,3598051.9873367026,-140.1136048922602,-4939.402911656733,6916.277364697938,0.9951769432710363,-5.491140979467173e-05,0.0005203980240605621,0.0980947386578412
1.815,1.1498247399085548e-05,0.0005367757347401176,-0.00664209596076856,-42.539504373848935,44.86313445973547,4.425890530701062,-1653985.5097254452,5080415.563082039,3598086.5691249752,-139.84826270162355,-4939.402212420603,6916.437944320993,0.9951785782471281,-5.5039398045843756e-05,0.0005216466073590977,0.09807814360756648
1.82,-1.6767178327483651e-06,0.0005262192853085944,-0.0066372218847470105,-42.51415427913915,44.820471604134305,4.415586076697017,-1653986.2083039198,5080390.866072697,3598121.151715868,-139.58312714157105,-4939.401524594287,6916.598412794575,0.995180206021697,-5.515106800050408e-05,0.000522983981942479,0.09806161832606555
