t_s,gyro_x_radps,gyro_y_radps,gyro_z_radps,accel_x_mps2,accel_y_mps2,accel_z_mps2,ins_pos_ecef_x_m,ins_pos_ecef_y_m,ins_pos_ecef_z_m,ins_vel_ecef_x_mps,ins_vel_ecef_y_mps,ins_vel_ecef_z_mps,ins_quat_w,ins_quat_x,ins_quat_y,ins_quat_z
0.0,1.0984547739790893e-05,0.0006606226414658505,-0.007302793433888027,-41.76151385980175,48.22431226559534,5.138185613838927,-1656201.7170614246,5097264.758841336,3591181.9960583495,-226.82286500164605,-4617.160284474699,6406.276788851849,0.9945218953682734,0.0,0.0,0.10452846326765354
0.005,-6.150051167994683e-06,0.0006554087919530068,-0.0073323036670705465,-41.758297662714426,48.22703573672645,5.135124121872548,-1656202.8505042538,5097241.673031212,3591214.027877057,-226.55426666856053,-4617.163765126357,6406.450694149775,0.9945238035756088,-1.4532374067878004e-07,1.6453796984296096e-06,0.10451030628017298
0.01,4.322099887067289e-06,0.0006366364800475771,-0.007315628310817385,-41.76701713060759,48.22334842658326,5.134709379829598,-1656203.9826041183,5097218.587203606,3591246.0605653245,-226.2856791366432,-4617.167277286271,6406.624612808682,0.9945257191577419,-3.3188726636752106e-07,3.2733192865114223e-06,0.10449207588593241
0.015,5.2692702675362484e-06,0.0006378634200031681,-0.007311204093443399,-41.77067063653885,48.21938881286457,5.1442709592103215,-1656205.1133609766,5097195.501358484,3591278.0941231465,-226.0170641896674,-4617.170771318324,6406.798515969515,0.994527630047918,-4.875097019887554e-07,4.857320661837886e-06,0.10447388691649445
0.02,-7.600142838462672e-06,0.0006564731012513039,-0.007316906348857623,-41.77813875193384,48.21559597574844,5.140773790975187,-1656206.2427747815,5097172.415496011,3591310.128550523,-225.74845774387424,-4617.174217716452,6406.9724347646,0.9945295394475594,-6.410975739018063e-07,6.4446199915640124e-06,0.10445570891187
0.025,3.16980586959945e-06,0.0006615617329689349,-0.007315645017629726,-41.78057548800171,48.219707052626475,5.1420993987310695,-1656207.3708454901,5097149.329616317,3591342.1638474353,-225.4798257031325,-4617.177660463024,6407.1463300704145,0.9945314500008418,-8.315427848112885e-07,8.074828295105887e-06,0.10443751669457152
0.03,-6.5226747651042775e-06,0.0006403158797230274,-0.007315672881480297,-41.78285696731584,48.21063296897086,5.138844475916125,-1656208.49757301,5097126.243719392,3591374.20001389,-225.21118226287336,-4617.181108955968,6407.320251763904,0.9945333598892985,-9.965389483485997e-07,9.720500575994027e-06,0.10441932757790598
0.035,7.592273545362466e-06,0.0006550742398666157,-0.007314962270537902,-41.787677197013075,48.20353742887422,5.132175356104463,-1656209.6229573318,5097103.157805242,3591406.2370498534,-224.94254642200275,-4617.184551493218,6407.494133717226,0.9945352694502221,-1.1800876562961935e-06,1.131081837323025e-05,0.104401138357046
0.04,3.6319080756863454e-06,0.0006546578011158723,-0.007303370197332455,-41.79015407689514,48.20746734053917,5.142175768648939,-1656210.746998445,5097080.07187386,3591438.2749551185,-224.67389881255525,-4617.188000831983,6407.667972203332,0.9945371784900564,-1.3323937829464984e-06,1.2941514484631879e-05,0.10438295086737039
0.045,-1.356484600797241e-05,0.0006527464723864998,-0.007311827001659423,-41.7915580120575,48.202384488663526,5.142475697207004,-1656211.8696963196,5097056.985925306,3591470.3137297,-224.40525107242902,-4617.1914212078755,6407.841860570321,0.9945390841701123,-1.4944376880893518e-06,1.45701417341547e-05,0.10436479216456052
0.05,-4.1683798618398225e-06,0.0006347364738508654,-0.007327303566557231,-41.79248377616502,48.19525139433469,5.139672657491644,-1656212.9910509775,5097033.899959671,3591502.353373692,-224.13661207954007,-4617.194832517615,6408.015736059277,0.9945409917220647,-1.6987403223488023e-06,1.618952988020567e-05,0.10434661240071698
0.055,-2.0690550505986144e-05,0.000646769066894158,-0.0073166188855679146,-41.79960592227582,48.19707582635828,5.142203694837866,-1656214.1110624669,5097010.813976982,3591534.393886987,-223.86798375123448,-4617.198243331397,6408.189582089963,0.9945429029765042,-1.8749824496875335e-06,1.776658997408575e-05,0.10432839412116317
0.06,4.185128980322301e-06,0.0006568556625774772,-0.007297297471793541,-41.80895929940439,48.18168874181597,5.136378889862459,-1656215.2297307483,5096987.727977273,3591566.4352695537,-223.59932880296873,-4617.201640282407,6408.363444579602,0.9945448111077478,-2.0954424734807565e-06,1.936925810826119e-05,0.10431020237299578
0.065,8.335250451074788e-06,0.0006651033550795355,-0.007311037571550219,-41.81405777619536,48.18808268807539,5.139361674744292,-1656216.3470557155,5096964.64196064,3591598.4775212365,-223.33065807097495,-4617.205012451878,6408.537228442888,0.9945467138655616,-2.2566819531722535e-06,2.1003492233538027e-05,0.1042920586285152
0.07,1.5342001421646997e-05,0.0006642940964063704,-0.0072949986543465045,-41.810287228621924,48.17729786893264,5.135299102386444,-1656217.4630372657,5096941.555927151,3591630.520641933,-223.0619619666625,-4617.208383521707,6408.711050288171,0.9945486198710829,-2.4097538514771804e-06,2.2659315124701335e-05,0.10427388068578224
0.075,6.393370208268565e-07,0.0006720463047121373,-0.007302200721429069,-41.81184449557301,48.18424654406833,5.140645784183678,-1656218.577675427,5096918.469876791,3591662.56463163,-222.79330261081947,-4617.211760387473,6408.88482840365,0.9945505213613235,-2.5451924927658593e-06,2.431495253992001e-05,0.10425574258631816
0.08,-1.5135648334330253e-05,0.0006525770012284016,-0.00732515743503528,-41.82224017432841,48.17627809921236,5.136345262501796,-1656219.690970273,5096895.383809552,3591694.609490342,-222.524635740616,-4617.215135388098,6409.05865641371,0.9945524243942451,-2.719208457951771e-06,2.5986032715189093e-05,0.10423758654564821
0.085,-3.4983639124953718e-06,0.0006555065611623783,-0.007305367812193146,-41.822592245999665,48.169010594857234,5.144647811735574,-1656220.8029217042,5096872.297725477,3591726.655218081,-222.25593678578778,-4617.218494312225,6409.232439263805,0.9945543330754858,-2.9273749554078485e-06,2.760459375218648e-05,0.10421937339186364
0.09,-6.397273972224528e-06,0.00064002381278753,-0.007317903453306069,-41.8293964125435,48.172522187401334,5.1348156307894355,-1656221.9135297101,5096849.211624717,3591758.7018147386,-221.98726553197963,-4617.221809848272,6409.406223669671,0.9945562362651585,-3.1073685993036543e-06,2.9233471017249658e-05,0.10420120940675667
0.095,1.708571974498649e-06,0.000665922964826993,-0.007313998253851209,-41.82333419490995,48.16087970357398,5.138907932597564,-1656223.0227942492,5096826.12550728,3591790.7492802907,-221.718550140437,-4617.225164730914,6409.579997082059,0.9945581423865975,-3.2905376782485853e-06,3.082309684037228e-05,0.10418301421839223
0.1,-8.483341328170131e-06,0.0006659454630202076,-0.007309755733747227,-41.834534786579,48.163128534431,5.136371889043429,-1656224.130715359,5096803.039373129,3591822.797614653,-221.44989374630725,-4617.228496067547,6409.753748035677,0.994560047153618,-3.460297746722772e-06,3.247922944524058e-05,0.10416482870393082
0.105,5.259428890110362e-06,0.0006368013702482469,-0.0073170834591960755,-41.83157192641647,48.155666743910615,5.132710284654242,-1656225.2372930564,5096779.953222323,3591854.8468177724,-221.18118521991025,-4617.231826034457,6409.9274995201085,0.9945619504806588,-3.6554045027896996e-06,3.4132763918119454e-05,0.1041466537038042
0.11,-1.5161162743586954e-05,0.0006341962332404241,-0.007299005573892162,-41.84203451599937,48.14901518003984,5.127881163972996,-1656226.34252728,5096756.867054842,3591886.896889574,-220.91250424001882,-4617.235166138399,6410.101221161985,0.994563855383098,-3.808753642696668e-06,3.571741245698215e-05,0.10412846044798756
0.115,1.0558497210295671e-05,0.0006391161065606243,-0.0073051143731529935,-41.84639242273183,48.1410296639613,5.136116758831048,-1656227.4464180102,5096733.78087069,3591918.9478298803,-220.64378777130605,-4617.238495152792,6410.274901454815,0.9945657552450252,-4.01219695067053e-06,3.729026780628341e-05,0.1041103121080267
0.12,-1.356997207393518e-05,0.0006460526731741237,-0.0073121817245443855,-41.84640432767364,48.14567517409259,5.138602194429899,-1656228.5489651852,5096710.694670024,3591950.999638576,-220.3750822776295,-4617.241771127779,6410.448576727776,0.9945676563627641,-4.152971618107637e-06,3.888205013016012e-05,0.10409214854165366
0.125,-4.863395901186614e-06,0.0006358299430783386,-0.007332660499127543,-41.844549654782,48.1311599619753,5.131707036757177,-1656229.6501688326,5096687.60845296,3591983.0523157325,-220.10637673162336,-4617.245054489388,6410.622285880449,0.9945695589841115,-4.355545564299921e-06,4.0484800619056654e-05,0.1040739673701362
0.13,-7.332942644437034e-06,0.0006567957449570143,-0.007302430020013771,-41.854084813310806,48.12996615723698,5.139378917992763,-1656230.7500290307,5096664.522219468,3592015.1058612633,-219.83770252325303,-4617.248342375254,6410.795926579504,0.9945714665990097,-4.533813542461898e-06,4.2064398150696687e-05,0.10405573524379048
0.135,-1.2193092247795326e-05,0.0006522433801301303,-0.0073088029191417,-41.85695095197242,48.13026666356625,5.131640283221709,-1656231.8485457946,5096641.435969651,3592047.1602750397,-219.56900300344512,-4617.251584282766,6410.969583827924,0.9945733660120908,-4.7236727216667655e-06,4.369548355534739e-05,0.10403757824830098
0.14,-5.9513682380289275e-06,0.0006548439912748416,-0.007338451660590103,-41.85539825878628,48.1087910890162,5.135402979632667,-1656232.945719016,5096618.349703545,3592079.215557065,-219.3002855111946,-4617.254858083355,6411.143226298796,0.9945752667487355,-4.924432991297248e-06,4.531398562253738e-05,0.10401940537262382
0.145,-1.5801832049903328e-05,0.0006287156012679238,-0.007264056193690507,-41.8657426726444,48.11299254813924,5.134031237163183,-1656234.0415487906,5096595.263421205,3592111.271707135,-219.0316243853128,-4617.258077874409,6411.316801628454,0.9945771748592133,-5.110353242275022e-06,4.694057671926459e-05,0.10400115874129773
0.15,-1.196949852635962e-05,0.0006517535788316577,-0.007297933628011164,-41.87227427205192,48.10464719036813,5.127328708235163,-1656235.1360351339,5096572.177122765,3592143.328725112,-218.7629128770703,-4617.261297974105,6411.490389429729,0.9945790632956534,-5.313963920202282e-06,4.8499640850786125e-05,0.10398309705662498
0.155,1.2108596835495612e-05,0.0006292243556698452,-0.007320531806585661,-41.865228238303224,48.09969600108116,5.123317097587961,-1656236.2291778764,5096549.090808224,3592175.386610904,-218.49418409494172,-4617.26451858669,6411.663927084585,0.9945809602039661,-5.514038707892768e-06,5.011698348618658e-05,0.10396495110199473
0.16,2.7697903230134213e-05,0.0006518520748178508,-0.0072986221344174046,-41.8649229671934,48.091597388731095,5.134007295775908,-1656237.3209770767,5096526.004477516,3592207.44536434,-218.22549605227064,-4617.267764858089,6411.8374475709,0.9945828626543314,-5.648391663138682e-06,5.1684566147213354e-05,0.10394674892038161
0.165,-5.533354167986166e-06,0.0006622887467581188,-0.007297839555837253,-41.87318865460848,48.09495491133103,5.126092236274745,-1656238.4114329247,5096502.918130709,3592239.504985393,-217.95684320186865,-4617.270957763823,6412.010973476626,0.9945847590737122,-5.749859837656334e-06,5.331246309873929e-05,0.10392860117891715
0.17,-1.2013282771017771e-05,0.0006634617646026514,-0.007311077108107015,-41.87228413716839,48.092160098086595,5.128849728269359,-1656239.5005453888,5096479.831767867,3592271.565474056,-217.6881424085768,-4617.27417906561,6412.184491898817,0.9945866549541087,-5.93666783305869e-06,5.495767623549771e-05,0.10391045535270488
0.17500000000000002,1.5499248028605475e-05,0.0006315732760048122,-0.007314824335505087,-41.8790641998636,48.09118775831922,5.127327353328222,-1656240.5883143938,5096456.74538894,3592303.626830325,-217.41945961456474,-4617.2773915828675,6412.358015570019,0.9945885539386518,-6.139894493556281e-06,5.6604122496216745e-05,0.10389227657769702
0.18,4.229858088460669e-06,0.0006529051884697978,-0.007303353035141319,-41.878011327964515,48.07428754066098,5.133650083692354,-1656241.674739922,5096433.65899396,3592335.689054197,-217.15075163050997,-4617.280600521354,6412.5315333446715,0.9945904535663539,-6.266430142510054e-06,5.8178424714596206e-05,0.10387408844691365
0.185,8.723800217182884e-06,0.0006745933648482967,-0.007315416879102971,-41.87531483147985,48.076926312101804,5.122869657190876,-1656242.7598220326,5096410.572583072,3592367.752145554,-216.8820926681398,-4617.283754750072,6412.70500926733,0.9945923498771979,-6.426524772434891e-06,5.980284189032428e-05,0.10385592880559899
0.19,-6.9386416275550965e-06,0.000659455992557487,-0.0073101971307874165,-41.872938441661795,48.070807136149284,5.123938657293556,-1656243.8435608456,5096387.486156261,3592399.8161042673,-216.61343244291,-4617.286969659155,6412.878476161789,0.9945942489822721,-6.581078216923882e-06,6.148235289420011e-05,0.10383773913178107
0.195,6.351249642640005e-06,0.000638981452741912,-0.007299610679580622,-41.88359717998332,48.06401195516899,5.128615946244992,-1656244.9259564285,5096364.399713392,3592431.8809302864,-216.34480073290646,-4617.290177876759,6413.051931392946,0.9945961463992065,-6.770645717059607e-06,6.312015922329799e-05,0.10381956240445409
0.2,2.1809766533564183e-05,0.000630375601025397,-0.00729916918281265,-41.89375042814456,48.050308290007514,5.133108249758446,-1656246.0070087928,5096341.313254605,3592463.9466235423,-216.076145059721,-4617.293336785811,6413.2253711290105,0.9945980407375656,-6.9218522133591605e-06,6.47105053411137e-05,0.10380141196358691
0.20500000000000002,1.6557062665607309e-06,0.0006547297512369357,-0.00728816412851455,-41.89265751792903,48.04843515207417,5.129980350618831,-1656247.0867178557,5096318.226780183,3592496.0131838885,-215.807480058054,-4617.296432379607,6413.39876725203,0.994599934629301,-7.0323878604913335e-06,6.628346457641826e-05,0.10378326258331928
0.21,9.033617808353336e-06,0.000641860732849852,-0.007283420110565718,-41.8940497084712,48.0385390181259,5.130102166950683,-1656248.1650836174,5096295.14029024,3592528.080611197,-215.53882466224235,-4617.299544876402,6413.572156063627,0.9946018253280366,-7.1993536321007e-06,6.791175143819091e-05,0.10376514053525453
0.215,-1.10655310733704e-05,0.0006357436101400114,-0.007284026947381507,-41.889652372872895,48.033471534521496,5.1232115492577615,-1656249.2421061455,5096272.053784782,3592560.148905367,-215.27018656952404,-4617.302638017645,6413.745511975332,0.9946037144658413,-7.344634996422022e-06,6.95099534147594e-05,0.10374703024749252
0.22,7.476654337194955e-06,0.0006424760955955731,-0.00730695643370363,-41.89145939854944,48.02342588375423,5.124373396137551,-1656250.3177855466,5096248.967263781,3592592.2180662467,-215.0015738684135,-4617.305762400049,6413.918839905974,0.9946056034294066,-7.53830660079632e-06,7.10877320070266e-05,0.10372891841976516
0.225,-8.966504391018024e-06,0.0006346717848171826,-0.00731321313260653,-41.89526862379446,48.01792250719795,5.121457649450241,-1656251.3921219269,5096225.880727219,3592624.2880936884,-214.73297820053236,-4617.308862151467,6414.092136858942,0.9946074980048547,-7.68762275742376e-06,7.268705896483019e-05,0.10371074953935616
0.23,-1.0660254277368151e-05,0.0006326813178608398,-0.007306381498393217,-41.90353934007069,48.01575450170607,5.121124961723878,-1656252.465115315,5096202.794175166,3592656.358987551,-214.46437710683577,-4617.311959587226,6414.265408183582,0.9946093938689043,-7.875802793576673e-06,7.426271688209025e-05,0.103692565069784
0.23500000000000001,6.007068976296849e-06,0.000637105483270466,-0.007319709354409529,-41.89997990233525,48.003912058333036,5.118923100652148,-1656253.5367656276,5096179.707607659,3592688.430747749,-214.19574783650216,-4617.315042973809,6414.4386708111415,0.9946112876276624,-8.06767711600144e-06,7.583298649287075e-05,0.10367439755269522
0.24,-7.517877302753521e-06,0.0006479973840938896,-0.0072836580570293605,-41.89318609856585,47.996248494274994,5.121107767677754,-1656254.6070728935,5096156.621024746,3592720.5033741514,-213.92715858929415,-4617.318121967497,6414.611890375979,0.9946131845053522,-8.219256874551924e-06,7.741857655817727e-05,0.10365619685735246
0.245,-6.213646558287564e-06,0.0006461870066787298,-0.00728557080819902,-41.902109097362555,47.98790454760016,5.118950635690865,-1656255.6760373446,5096133.534426453,3592752.576866625,-213.65862184332465,-4617.321195474503,6414.7850988804275,0.9946150717043147,-8.407282409991454e-06,7.902774554745456e-05,0.10363808577233516
0.25,-4.972413459841402e-06,0.0006394275339408417,-0.0073102791885857445,-41.90331966703874,47.98647111146787,5.120915865334282,-1656256.7436590565,5096110.447812848,3592784.6512250416,-213.39006291978734,-4617.324246636475,6414.958267958589,0.9946169590667698,-8.591596241520352e-06,8.063275081839241e-05,0.1036199698963265
0.255,-5.917578452390591e-06,0.0006333413342416993,-0.007318675691700857,-41.90779789469334,47.9882547895429,5.125770462755031,-1656257.8099379863,5096087.361184004,3592816.726449321,-213.12150899578256,-4617.327290878169,6415.131443757123,0.994618852497667,-8.771077631248218e-06,8.222126935736519e-05,0.10360179254701746
0.26,3.631527503855175e-06,0.0006549357788578289,-0.0072838799275494375,-41.91246656481709,47.96967792308655,5.121062306712528,-1656258.874874117,5096064.274539983,3592848.8025395423,-212.8529432939965,-4617.330317451151,6415.304644637041,0.9946207477694231,-8.951334588271393e-06,8.379440926015406e-05,0.10358359428483024
0.265,-2.580302510386712e-05,0.0006577141458615999,-0.0072935244180037774,-41.90827285445527,47.971410815306555,5.1160576580966035,-1656259.93846745,5096041.187880897,3592880.8794955565,-212.58438987349942,-4617.333317176601,6415.477761116052,0.9946226336922244,-9.11343198129482e-06,8.542371844688876e-05,0.10356548250685096
0.27,-1.712166726628715e-05,0.0006418767670507959,-0.007295737924802684,-41.903715765605625,47.95936262652643,5.121078235278561,-1656261.000718052,5096018.101206714,3592912.957317165,-212.31585092702431,-4617.336355804084,6415.650882292831,0.9946245217779256,-9.349441468832153e-06,8.705231494295491e-05,0.10354734671885701
0.275,-1.5006465792643229e-05,0.0006313975310237842,-0.007285230980027897,-41.91000953539607,47.9534972044443,5.12129177390289,-1656262.0616260944,5095995.014517417,3592945.036004322,-212.04736607894247,-4617.339363125976,6415.823980602717,0.9946264101068701,-9.559764910103642e-06,8.864377807371589e-05,0.10352920539061289
0.28,2.45273578456485e-05,0.0006519347741336706,-0.007280724362291874,-41.90447379081666,47.940052326808726,5.117265833073668,-1656263.121191683,5095971.927813134,3592977.11555692,-211.77886932168548,-4617.3423498595,6415.997058421445,0.9946282953858172,-9.762114164168656e-06,9.020973157646066e-05,0.10351109015370807
0.28500000000000003,1.188740103477527e-05,0.0006469024697965819,-0.007316271328864308,-41.9194049497918,47.93939803121519,5.113709259627724,-1656264.1794149112,5095948.84109391,3593009.1959747737,-211.51042197824785,-4617.345339772266,6416.170083225975,0.9946301791625921,-9.871473330645306e-06,9.183698293977176e-05,0.10349298607882823
0.29,1.1375246841705854e-05,0.0006639545671997756,-0.007305288622375597,-41.91476815731902,47.929047767005876,5.111336828845825,-1656265.2362957406,5095925.754359766,3593041.277257709,-211.24190973370176,-4617.348318000722,6416.343090783953,0.994632071803601,-1.0010968840881247e-05,9.34484498234172e-05,0.10347479358203159
0.295,-1.0949063222064865e-05,0.0006503761450482303,-0.007297986484572292,-41.909091401562314,47.92315876916593,5.119931974826431,-1656266.2918341134,5095902.667610725,3593073.35940559,-210.97343938448836,-4617.351298094934,6416.5160617930105,0.9946339612646045,-1.0156146450073552e-05,9.510218587025967e-05,0.10345662835946469
0.3,1.2219213472014418e-05,0.0006322091533489786,-0.007287675020062547,-41.914707639502765,47.92712040188136,5.11540367099322,-1656267.3460302656,5095879.580846857,3593105.4424183597,-210.70502150120961,-4617.354249128907,6416.689045899602,0.9946358485055232,-1.0353321667668263e-05,9.67163841764078e-05,0.10343848126518354
0.305,-1.2248891387251027e-05,0.000653286562557569,-0.0072724754078076475,-41.91832164821139,47.90276050785145,5.112979301326687,-1656268.3988842461,5095856.494068179,3593137.526296066,-210.43657073425257,-4617.357222096996,6416.862036710665,0.994637732751745,-1.0488186477131874e-05,9.829140009243311e-05,0.10342035977150153
0.31,-4.068670939447229e-06,0.0006515369162526684,-0.007286714419613504,-41.91664080049492,47.884965042173036,5.114185371317693,-1656269.4503960488,5095833.407274754,3593169.6110384753,-210.16815039017806,-4617.360148115397,6417.034926921749,0.9946396127302319,-1.068933938207724e-05,9.991250108993445e-05,0.10340227604402409
0.315,6.3076780399872205e-06,0.0006259009143250523,-0.00728701006765066,-41.90666871583532,47.884384286308126,5.109011794764173,-1656270.500565867,5095810.320466787,3593201.696645187,-209.8997768298481,-4617.363038766013,6417.207757806958,0.9946414960581653,-1.0869702618327483e-05,0.00010153136563828807,0.10338415687331488
0.32,-1.0942071657345376e-05,0.0006460475240760605,-0.007281058140647697,-41.91642582295521,47.87927789368363,5.098381883809109,-1656271.5493939281,5095787.233644251,3593233.783116053,-209.63144760018278,-4617.365975605843,6417.380588440963,0.9946433791366774,-1.1017638166689838e-05,0.00010308916544160883,0.10336603693093567
0.325,-4.108398949422827e-06,0.000626746266734617,-0.007292233378692923,-41.907016443245375,47.869412914858465,5.109709251207809,-1656272.5968802362,5095764.146806989,3593265.8704509446,-209.36307565127484,-4617.36892917646,6417.553368390727,0.9946452603391079,-1.1213671738757947e-05,0.00010469260450876369,0.1033479317580208
0.33,-2.090377506804163e-05,0.0006359166296134551,-0.007284490084069503,-41.924788131420236,47.8676030111803,5.11356695975822,-1656273.6430248842,5095741.059955062,3593297.958649756,-209.09478358547577,-4617.371841524869,6417.726156069314,0.9946471441015391,-1.1387728669000434e-05,0.00010624981408214377,0.10332979876080733
0.335,2.2028996939203023e-06,0.0006573525765381805,-0.007277091880787138,-41.91979672315098,47.85419045235831,5.11290830431829,-1656274.687827907,5095717.973088697,3593330.0477124965,-208.8264254855379,-4617.374704535423,6417.898940123822,0.9946490255280699,-1.1605916150227525e-05,0.00010782548837146255,0.10331168498784556
0.34,3.9003087141972035e-06,0.0006693443565429714,-0.007266797587007966,-41.9159165064881,47.84908549863336,5.105169723646321,-1656275.731289267,5095694.886208044,3593362.137639047,-208.55811858774146,-4617.377556385086,6418.07168022878,0.9946509047065499,-1.177218051394479e-05,0.00010946043392249012,0.10329358957007373
0.34500000000000003,2.5869195306724497e-05,0.0006419247581366096,-0.007279860350129985,-41.91138037734714,47.833236279787144,5.111592312963455,-1656276.773409148,5095671.79931305,3593394.228429221,-208.28983370820615,-4617.380441625845,6418.244389359218,0.9946527808919867,-1.19373179181576e-05,0.00011112563715575672,0.10327551971513257
0.35000000000000003,-1.4783054205567812e-05,0.0006496620513708674,-0.007267546078607147,-41.913834272847446,47.83010285727873,5.109976750163964,-1656277.814187761,5095648.712403743,3593426.320082855,-208.0216115152627,-4617.383281214588,6418.417064078853,0.9946546601268147,-1.2040750978838572e-05,0.00011272832963308927,0.10325741733819815
0.355,8.56921349252849e-07,0.0006350935714514632,-0.007285827081944916,-41.91549854203703,47.811090535709646,5.112668057557109,-1656278.8536252577,5095625.625480236,3593458.4125998337,-207.75338724566114,-4617.386121507361,6418.589727556645,0.9946565358478934,-1.2247265270948767e-05,0.00011433976816473071,0.10323934555919305
0.36,1.2684417610717548e-05,0.0006451681297235414,-0.00728954510423049,-41.92148972879088,47.813798136615254,5.10280972677046,-1656279.8917217231,5095602.538542654,3593490.505979973,-207.4851988688253,-4617.388910890631,6418.76232805822,0.9946584159601752,-1.2411133674027807e-05,0.00011591901616618391,0.10322122828343239
0.365,-9.692955651850698e-06,0.0006290978254923993,-0.0072665679216045225,-41.92601588670274,47.80851825405487,5.101675539668765,-1656280.9284771488,5095579.451591029,3593522.6002230803,-207.2169713601253,-4617.391739568301,6418.934914945527,0.9946602966966369,-1.2548192124384665e-05,0.00011752636799565894,0.10320310172399855
0.37,-8.313607243170976e-06,0.0006455441230076985,-0.007304542060437015,-41.90399695065848,47.79450700816315,5.0925565485511735,-1656281.9638914196,5095556.364625284,3593554.6953290715,-206.94873702474547,-4617.394557899472,6419.107481472727,0.994662171177006,-1.2736742268211039e-05,0.00011908798573696655,0.10318503227344306
0.375,1.775480904316928e-05,0.0006453052544079505,-0.007266052518735455,-41.911694384712135,47.78924359661899,5.101667558028596,-1656282.9979648131,5095533.27764531,3593586.791297756,-206.68062032583103,-4617.397432072255,6419.279992413581,0.9946640551159264,-1.2926116278587287e-05,0.00012069085432457349,0.10316686835886135
0.38,-1.2113761537844245e-06,0.0006515416806443723,-0.007278759368537418,-41.914113259738635,47.768635735757094,5.0971484607819,-1656284.030697603,5095510.190651108,3593618.88812901,-206.41249570803674,-4617.400249054632,6419.4525090141815,0.9946659287961022,-1.3050593771396008e-05,0.00012229985362275902,0.10314880011233918
0.385,2.3789346742976832e-05,0.0006452558605207128,-0.0072875309253987875,-41.91526341833188,47.76110582071928,5.11207339882346,-1656285.0620898355,5095487.103642888,3593650.985822621,-206.14439725527,-4617.403038308899,6419.624935372392,0.9946678054190918,-1.3223845890143645e-05,0.00012391946951925735,0.10313070023936904
0.39,1.0014048456993004e-05,0.000642960754949955,-0.007278188525104912,-41.913355526064464,47.76365123541339,5.10175121629111,-1656286.092141658,5095464.016620903,3593683.084378409,-205.87633175497157,-4617.4057557168435,6419.797379998348,0.9946696839740234,-1.3333311533870923e-05,0.0001255299001822392,0.10311257851243678
0.395,7.705481241483554e-06,0.0006374807148643931,-0.00728000227201582,-41.912794686090976,47.745651666702564,5.099593341127057,-1656287.1208531428,5095440.92958519,3593715.183796399,-205.60826219130942,-4617.408530108972,6419.969815789856,0.9946715597886039,-1.347643728460233e-05,0.00012713107291855116,0.10309447998696049
0.4,1.068999891527087e-05,0.00066410289781758,-0.007276917095303505,-41.91803441812009,47.73627540846046,5.090850958150482,-1656288.1482243743,5095417.842535665,3593747.284076391,-205.34023040052082,-4617.411279576774,6420.142181059405,0.9946734357403747,-1.3623891867979778e-05,0.0001287180234499384,0.10307637691779165
0.405,1.5347663891027443e-05,0.0006415293152298426,-0.0072778697041471245,-41.92138610413561,47.726442323991265,5.095081349753041,-1656289.174255416,5095394.755472371,3593779.385218062,-205.072186265108,-4617.4140378507755,6420.314487450657,0.9946753105566875,-1.3770784198306422e-05,0.00013037194407207678,0.10305828148421235
0.41000000000000003,-7.457745501169308e-06,0.0006425164034424319,-0.007284751116166118,-41.91827922469339,47.71878193791707,5.086535957587519,-1656290.198946271,5095371.668395385,3593811.4872212084,-204.8041557071504,-4617.416756610194,6420.486771003099,0.9946771852940619,-1.3900278687065188e-05,0.00013197093118211468,0.10304018364666362
0.41500000000000004,-5.044146620014661e-06,0.000644968977112644,-0.007271893772750901,-41.90481360879357,47.707003205236504,5.1019525497355165,-1656291.2222970284,5095348.581304733,3593843.5900856615,-204.53614729596276,-4617.419504487858,6420.659010281349,0.994679061470814,-1.4086739766973906e-05,0.0001335664979103321,0.10302206867023705
0.42,3.255200578911905e-05,0.0006439531977134087,-0.0072853226596925535,-41.90490253770446,47.69690626956031,5.096856063812877,-1656292.2443080107,5095325.494200474,3593875.693811348,-204.26824562078355,-4617.422198965563,6420.831264364557,0.9946809340034545,-1.4267826331270967e-05,0.00013516878549084112,0.10300398563086764
0.425,7.515778453652282e-06,0.0006463267905882531,-0.007268265245905865,-41.9095511149809,47.68411338110961,5.098390180432371,-1656293.2649795264,5095302.407082735,3593907.798398187,-204.00036062788044,-4617.424896826443,6421.00347119885,0.9946828096639136,-1.435516541542519e-05,0.00013677822799009246,0.10298586915081162
0.43,-5.50199763211251e-06,0.0006384312243878633,-0.0072473616018661775,-41.91511810784735,47.67865064233953,5.09279238825615,-1656294.2843116412,5095279.319951601,3593939.9038459514,-203.73248533040987,-4617.42755636109,6421.175634551603,0.9946846805992012,-1.4505367540762872e-05,0.0001383871275418697,0.10296779506167085
0.435,9.198121130461914e-06,0.0006314524506691114,-0.007268806799436341,-41.913104920334014,47.657902064102544,5.083855070722067,-1656295.3023043375,5095256.232807159,3593972.010154446,-203.46459310909972,-4617.430220555234,6421.347763411808,0.9946865458257025,-1.4685901412792652e-05,0.00013997304277965926,0.10294977292449123
0.44,-1.480660557794437e-05,0.0006495201350985894,-0.007271367635747502,-41.91291810094137,47.663817847351886,5.089877544387138,-1656296.3189576736,5095233.1456494,3594004.1173233367,-203.19674140961496,-4617.4328832232195,6421.519792818226,0.9946884162446245,-1.4828091600508326e-05,0.00014154538638756645,0.10293169742014441
0.445,1.492240105283614e-05,0.0006157027109874394,-0.007269556573885109,-41.89474726560864,47.64837666639754,5.092634357367334,-1656297.334271759,5095210.058478335,3594036.225352497,-202.9288927332577,-4617.435542612204,6421.691871263846,0.9946902869841054,-1.5034625092044866e-05,0.0001431564820262709,0.10291361552127032
0.45,-2.1978838818294886e-05,0.0006652899642411753,-0.007272163913270792,-41.89092351453284,47.6404624044148,5.090014441548869,-1656298.3482468966,5095186.971293979,3594068.334241971,-202.6611622692337,-4617.438199785341,6421.863918211993,0.9946921569397399,-1.515852936163034e-05,0.00014469113182607267,0.10289553808238407
0.455,7.546213715913231e-06,0.000647299620678649,-0.007260764038908593,-41.90465011572643,47.62407456412117,5.091974569901866,-1656299.3608834653,5095163.884096321,3594100.443991609,-202.39346518797325,-4617.440863612697,6422.035936993406,0.9946940272155365,-1.5386953771781553e-05,0.00014633959917627635,0.10287745413695479
0.46,-1.5918887826750376e-05,0.0006236683969452843,-0.00725842314785777,-41.89133728771704,47.616960527574584,5.086061091401112,-1656300.3721814887,5095140.79688551,3594132.554601179,-202.12574420088384,-4617.443460550053,6422.207891169276,0.9946958942361368,-1.553732602078701e-05,0.0001479509233536938,0.10285939849565538
0.465,3.317922382226898e-06,0.0006507562692730619,-0.0072763206937451275,-41.90383071591901,47.60721902569357,5.086548472497635,-1656301.3821410828,5095117.709661612,3594164.666070455,-201.85809340249028,-4617.446098450828,6422.379819261149,0.9946977603324587,-1.573997226554608e-05,0.00014949744885430207,0.10284134865099974
0.47000000000000003,-1.757242083545009e-05,0.0006597689026584037,-0.0072710069531388526,-41.90162782461621,47.593117266638735,5.08438787225742,-1656302.3907623417,5095094.622424634,3594196.77839927,-201.59041021086168,-4617.448693013274,6422.551706607543,0.9946996306900648,-1.590175254739702e-05,0.0001511162800645161,0.10282325425725818
0.47500000000000003,1.5387989679877194e-05,0.0006345036121596867,-0.0072564218054496105,-41.8972918864536,47.58406466420016,5.079494195753442,-1656303.3980452798,5095071.535174714,3594228.891587388,-201.3227649887842,-4617.451274919654,6422.723540610281,0.9947014993459138,-1.6117796628901054e-05,0.00015275215356066858,0.10280517305071409
0.48,-4.885793120606228e-06,0.0006577915238527286,-0.00725123895727056,-41.89343924101981,47.56299417941159,5.086779659414285,-1656304.4039900787,5095048.447911849,3594261.0056345793,-201.05515459028416,-4617.4538708847795,6422.895335907208,0.9947033639335486,-1.6245377204425794e-05,0.00015433367028966965,0.10278712806810145
0.485,5.4149851099472165e-06,0.0006478676729509983,-0.0072487993688776205,-41.89559057501931,47.555309922409556,5.081389597137307,-1656305.4085970009,5095025.360636162,3594293.1205406124,-200.78761430871302,-4617.456404394003,6423.0670773667325,0.9947052268498313,-1.642935601869449e-05,0.0001559678888784876,0.10276909594678527
0.49,2.3939431459860003e-06,0.0006542750676155292,-0.00727017605688336,-41.89051654005471,47.547355279857115,5.080245209881144,-1656306.4118662283,5095002.273347791,3594325.2363052526,-200.52007666192094,-4617.458943666411,6423.238778773066,0.994707088814193,-1.658516861843878e-05,0.00015758007575410662,0.1027510698545034
0.495,-1.0951532303772569e-05,0.0006397098866160576,-0.007273445233469779,-41.883288645781015,47.543767400935685,5.076428061882927,-1656307.4137978698,5094979.186046717,3594357.3529283423,-200.25257993558654,-4617.4614862072885,6423.410457014039,0.9947089559368304,-1.6750148180298012e-05,0.0001592074193550657,0.10273299057017214
0.5,-1.1500791266698019e-05,0.0006335665237211252,-0.007265054424458728,-41.89172354382879,47.52355368917745,5.085256252819427,-1656308.4143921258,5094956.098732859,3594389.470409795,-199.9851224242012,-4617.464056987175,6423.582124180098,0.9947108235729871,-1.6944575386141103e-05,0.00016079511492462365,0.10271490312784295
0.505,2.3443548053876855e-06,0.0006341499537438214,-0.007248714520372184,-41.890937392982345,47.51950808706229,5.070981963318052,-1656309.413649133,5094933.011406376,3594421.5887494427,-199.71768041538064,-4617.46653594033,6423.753734899187,0.9947126887259009,-1.7138787560619826e-05,0.0001623673925795026,0.10269683651788296
0.51,-1.5774873608627467e-05,0.0006440485962168523,-0.007252541156843134,-41.88420064000109,47.49896966513497,5.067051312552677,-1656310.4115689243,5094909.924067361,3594453.707947025,-199.45023617695244,-4617.469070074286,6423.925297966485,0.9947145493541317,-1.7298713031604683e-05,0.0001639446763755205,0.10267881050199319
0.515,-2.6147424354430446e-05,0.000654522260312062,-0.007226181742899222,-41.886627571035405,47.49498856532284,5.072487137943804,-1656311.4081516636,5094886.836715703,3594485.828002221,-199.18285958374184,-4617.471593101389,6424.096780404434,0.994716410630432,-1.7506239667654525e-05,0.00016554192460892605,0.10266077494307464
0.52,1.4208991843512232e-05,0.0006614128812581116,-0.007244145188202124,-41.880974930077286,47.47910957717365,5.063034353841609,-1656312.4033975415,5094863.749351502,3594517.9489148417,-198.91549152099088,-4617.474087138601,6424.268267837343,0.9947182648083025,-1.774223784124959e-05,0.00016716255761994932,0.10264280490444683
0.525,2.26875327018055e-05,0.0006161244503637828,-0.007271394308536824,-41.87629594339322,47.46939040025847,5.0593875793479555,-1656313.397306697,5094840.661974784,3594550.070684704,-198.64817067485646,-4617.476600248634,6424.439677157699,0.9947201232664902,-1.7879653536953832e-05,0.00016881068108471077,0.10262479014337032
0.53,2.331541809050294e-05,0.0006408035257888095,-0.007249762212078067,-41.875439273348796,47.459897695621564,5.068401754406497,-1656314.3898793461,5094817.57458548,3594582.193311519,-198.38088896529445,-4617.479121604085,6424.611048815916,0.9947219884052326,-1.7984376999268123e-05,0.00017034835526274518,0.1026067075835706
0.535,3.525341846148414e-06,0.0006580481376338422,-0.007242072947011099,-41.87730683819701,47.450423797055,5.076742388351793,-1656315.3811156813,5094794.487183691,3594614.316795181,-198.11364510244596,-4617.481594008048,6424.782415907235,0.9947238476543013,-1.80938604113214e-05,0.00017194756346740678,0.10258867878313876
0.54,1.7005556575661315e-06,0.0006549997982141026,-0.007247727659669536,-41.87426308416576,47.442255408753816,5.070579132932804,-1656316.3710158588,5094771.399769669,3594646.4411356566,-197.8464259806312,-4617.484014513554,6424.953774314047,0.9947257045939443,-1.825697741883839e-05,0.00017358458043518755,0.10257066907823766
0.545,1.7280632144633838e-06,0.0006625826519064514,-0.007253699722833432,-41.86675543614734,47.4136332555091,5.058390656980413,-1656317.3595800055,5094748.3123435,3594678.5663328245,-197.57923261452896,-4617.486453374132,6425.125092918017,0.9947275626558428,-1.842385310302876e-05,0.00017521354850966736,0.10255264527812252
0.55,-8.344599654146147e-06,0.0006637269982511016,-0.007237692040686843,-41.87473907120026,47.40321196520353,5.070276114767112,-1656318.346808373,5094725.224905124,3594710.692386246,-197.3121144128022,-4617.488896729248,6425.296275641895,0.994729421916002,-1.8592607095032724e-05,0.000176861380487388,0.10253460659223146
0.555,1.2564963374773208e-05,0.0006491631710434085,-0.007245807705918442,-41.8594497636335,47.39774507278617,5.054151604437441,-1656319.3327011585,5094702.137454734,3594742.8192955614,-197.0449998201678,-4617.491259471503,6425.467450585359,0.9947312767427025,-1.8786696276070602e-05,0.00017850947694678446,0.10251660768509575
0.56,-1.152118639865004e-06,0.0006286687518710359,-0.00721542734671146,-41.86309780202341,47.37904125488478,5.060679403477162,-1656320.3172585284,5094679.049992307,3594774.947060636,-196.77794813085944,-4617.493711191162,6425.638579162258,0.994733133328139,-1.892505799648744e-05,0.00018012671417361908,0.10249858855316965
0.5650000000000001,8.303208890806948e-06,0.0006520128384499529,-0.007246636272616238,-41.86174760527033,47.36539837454762,5.059024312046157,-1656321.3004807178,5094655.962517796,3594807.075681221,-196.51092762205226,-4617.496093368813,6425.809655015909,0.9947349818097148,-1.9092266497222167e-05,0.00018168947163015226,0.10248064494551067
0.5700000000000001,1.3214927743153641e-05,0.0006343473924955971,-0.0072451938316051056,-41.847097737796496,47.35833596627213,5.068081538509062,-1656322.2823678893,5094632.875031412,3594839.205157059,-196.24394095785422,-4617.49846011385,6425.98067996943,0.9947368379492854,-1.9241956097464218e-05,0.00018331270295622292,0.10246262368716323
0.5750000000000001,1.7540602730939467e-05,0.0006343345782459916,-0.007228515065961579,-41.86015609712306,47.34773062562904,5.063965712106376,-1656323.2629203654,5094609.787533233,3594871.3354880633,-195.97704952937477,-4617.500811608017,6426.151721956981,0.9947386933987058,-1.9374905241255743e-05,0.000184893261285432,0.10244460598065007
0.58,5.831223123116521e-06,0.0006556322591190714,-0.007233135557056802,-41.85339101680548,47.33109409297303,5.058046191978034,-1656324.2421382864,5094586.700023367,3594903.466674134,-195.71011876319992,-4617.503134699909,6426.32270637039,0.9947405442486108,-1.949708609659167e-05,0.00018647489634962948,0.10242662971588128
0.585,5.183649483732111e-06,0.0006328852331005598,-0.007240152282834934,-41.84543952971165,47.32210082359164,5.050831107360861,-1656325.2200216984,5094563.612501872,3594935.5987149514,-195.4432460655867,-4617.505463433578,6426.493620402117,0.9947423959435201,-1.965384221031034e-05,0.00018810649691312052,0.10240864193132111
0.59,-4.6408563568180995e-06,0.0006481140763840215,-0.007228101163360668,-41.84493419918603,47.30583525715968,5.054860010989046,-1656326.1965708665,5094540.524968656,3594967.7316102334,-195.17642122115578,-4617.507822842807,6426.66449245615,0.9947442491173609,-1.9806388309642714e-05,0.0001896813626990359,0.10239063666481184
0.595,-2.5831945056696847e-05,0.0006372004507777537,-0.007210588332549143,-41.84298091691891,47.30678235337872,5.048259220523016,-1656327.1717860159,5094517.437423757,3594999.86535976,-194.90963849003413,-4617.5101366797235,6426.835318171324,0.9947460988707784,-1.9987259091777333e-05,0.00019129158618633025,0.10237266133790938
0.6,-2.1457373627632727e-05,0.0006491839149855446,-0.0072149753792635635,-41.83922140489743,47.28327427425479,5.0449816722153376,-1656328.1456672607,5094494.349867192,3595031.9999634027,-194.6428594823989,-4617.512489196637,6427.006138888728,0.9947479438196659,-2.0218027732012804e-05,0.00019286924629929465,0.10235472954012502
0.605,-7.42232824115211e-07,0.0006325052341654862,-0.007236292525630199,-41.83590090880764,47.27626448069888,5.052692375136219,-1656329.1182147616,5094471.262298931,3595064.135420915,-194.37614089607092,-4617.514815047976,6427.176866138957,0.9947497895595644,-2.0440985901687527e-05,0.00019447782683844187,0.10233678679606555
0.61,-1.1175067430117678e-05,0.000647924947036859,-0.007220072358102537,-41.82628333632523,47.25562383042853,5.047253594294419,-1656330.0894287762,5094448.174719125,3595096.2717320737,-194.10946493210676,-4617.517107769703,6427.347597245905,0.9947516404352974,-2.060817136752249e-05,0.00019605022824105276,0.10231879099606313
0.615,-1.9289340808794784e-05,0.0006385567157336414,-0.007237363845116696,-41.82532518507006,47.23707559076541,5.046081369284726,-1656331.0593096078,5094425.087127853,3595128.4088966805,-193.84286766963157,-4617.519400946196,6427.51824544905,0.9947534868264886,-2.080523839095039e-05,0.00019765830868893658,0.10230083550430177
0.62,2.118076863964979e-05,0.0006224698278032955,-0.007228189488048392,-41.82536846637552,47.23150935703958,5.043888336742207,-1656332.027857557,5094401.9995251885,3595160.5469143535,-193.57631198327766,-4617.521664729067,6427.6888238568845,0.9947553373167699,-2.1020097261659012e-05,0.00019924101522812216,0.10228283698144466
0.625,3.1134774861198554e-06,0.0006465767047853893,-0.007224857585100997,-41.82658442461112,47.216513504241426,5.045195771506685,-1656332.9950727583,5094378.9119112,3595192.685784867,-193.30976853349287,-4617.523930829178,6427.859381464434,0.9947571851435262,-2.1130193380905618e-05,0.00020079406438372954,0.10226486122117977
0.63,-1.5830771641929686e-06,0.0006369404454975944,-0.007192168241007747,-41.82037511449697,47.18964006578664,5.040577754467149,-1656333.9609553136,5094355.824285969,3595224.8255080427,-193.0432536576114,-4617.526161416165,6428.02988880512,0.9947590317781994,-2.129138245592887e-05,0.00020240244574946714,0.10224689372116091
0.635,7.113137503314092e-06,0.0006386523717523709,-0.007217536732975434,-41.82023354037121,47.18653660976146,5.040370550549945,-1656334.9255054842,5094332.736649646,3595256.966083483,-192.77681455002494,-4617.528367909792,6428.200287357177,0.9947608697359119,-2.1461771639418676e-05,0.0002039856638787473,0.10222900748561245
0.64,-2.44003419273148e-05,0.0006355815074783759,-0.00721782846911267,-41.81702016561353,47.17747882611047,5.037825407130741,-1656335.888723487,5094309.649002289,3595289.1075109034,-192.5103865548969,-4617.530574846518,6428.370680771045,0.9947627138514401,-2.1610984639053355e-05,0.00020557536048680655,0.10221105812315263
0.645,-5.213539330323375e-06,0.0006477672816521909,-0.007216176964400653,-41.80132181380293,47.157407944790876,5.041308786382107,-1656336.8506094315,5094286.561343892,3595321.2497902075,-192.24399124899156,-4617.53278413669,6428.541040960782,0.9947645577149767,-2.183778417661213e-05,0.00020714936749325694,0.10219310801799542
0.65,-2.5126756509426913e-05,0.0006495233231948911,-0.007196660045437149,-41.80821571629566,47.13995062233577,5.041515332789434,-1656337.8111636902,5094263.4736745,3595353.3929211865,-191.977712245528,-4617.534972495099,6428.711350572945,0.9947664008249292,-2.2019980229079557e-05,0.00020875858136001812,0.10217516197585214
0.655,-5.985345658748357e-06,0.0006357744373597272,-0.0071869750628480245,-41.79763970091165,47.13208716147344,5.036766036006312,-1656338.7703865692,5094240.385994288,3595385.536903543,-191.71143940038112,-4617.5371123582045,6428.881592051427,0.9947682386220104,-2.2252137146558897e-05,0.0002103670767702128,0.1021572644475101
0.66,-3.082811945582344e-05,0.0006319487817110581,-0.00721043175127669,-41.799412134872576,47.120135270035085,5.033719711512708,-1656339.7282782358,5094217.298303304,3595417.681737036,-191.44522720517182,-4617.539281122973,6429.051805144351,0.9947700736297659,-2.2433174422976913e-05,0.0002119462688487034,0.1021393909623611
0.665,-5.485918029040395e-06,0.000639862956689824,-0.007196463547476625,-41.7877376458684,47.112220805872965,5.038633319780605,-1656340.6848388787,5094194.210601508,3595449.8274214678,-191.1790299274778,-4617.541437321135,6429.22196762135,0.9947719143030935,-2.2675029365419332e-05,0.00021350960185865316,0.1021214591222227
0.67,1.4209880770886658e-05,0.0006288515164888161,-0.0072129244283561204,-41.78886709876723,47.095280092054146,5.027420331037252,-1656341.6400687303,5094171.122888949,3595481.9739567107,-190.91291070661805,-4617.5435865033305,6429.39212944468,0.9947737510823675,-2.2855873086763572e-05,0.00021509908754459395,0.10210356197267319
0.675,2.4773851130581893e-06,0.0006543899305106863,-0.0072197611732619325,-41.781528929517826,47.077583669320454,5.023197710499159,-1656342.5939680266,5094148.035165619,3595514.1213425295,-190.64680784886127,-4617.545745206576,6429.562198117522,0.9947755917452445,-2.2984932725140537e-05,0.0002166662150184913,0.10208562384264937
0.68,1.649374347913713e-05,0.000644903968202464,-0.007200449273714685,-41.78296144931508,47.06211635312484,5.023973066190765,-1656343.5465369704,5094124.947431502,3595546.269578518,-190.380769635474,-4617.547901549143,6429.732197259229,0.994777433812114,-2.3149691822297534e-05,0.00021829386020790926,0.1020676686814568
0.685,-4.796815008945054e-06,0.000645774566644346,-0.007174188139210881,-41.77890112699442,47.04586464588316,5.028056438077647,-1656344.4977757924,5094101.859686691,3595578.4186643674,-190.11475915131098,-4617.550022910952,6429.902142533807,0.9947792706313313,-2.3277161955038763e-05,0.0002199014919329371,0.1020497615073365
0.6900000000000001,-5.598180718442677e-06,0.0006306728753247618,-0.007213864238899665,-41.769349922712486,47.03644891905855,5.018375362580593,-1656345.447684707,5094078.77193137,3595610.5685998355,-189.84880665389676,-4617.552105715629,6430.072044605083,0.9947811004252093,-2.345778826956863e-05,0.00022150585850677407,0.10203191962173705
0.6950000000000001,1.2123493086838325e-05,0.0006241473698595922,-0.0072088495548901215,-41.77848675282633,47.01861029348353,5.025281553240913,-1656346.39626399,5094055.684165527,3595642.7193846903,-189.58290667401636,-4617.554231142345,6430.241897301676,0.9947829400236646,-2.363657736994021e-05,0.00022307246107663796,0.10201397903161817
0.7000000000000001,-1.0286986714130964e-05,0.0006409505535576589,-0.007191718187511205,-41.76717298239942,47.00212035553214,5.025022364642303,-1656347.343513787,5094032.596389259,3595674.871018676,-189.31701203707894,-4617.556276179384,6430.411697148467,0.9947847780221113,-2.37696263871104e-05,0.00022462735486214542,0.10199605086989917
0.705,-8.974685898197999e-06,0.0006143348036802292,-0.007185895301408132,-41.76114718395004,46.99446786692108,5.015612288006225,-1656348.2894343238,5094009.508602783,3595707.023501536,-189.05120272923287,-4617.558314150806,6430.581446761723,0.9947866113166356,-2.3962684432461826e-05,0.0002262183240196381,0.10197816529152086
0.71,6.37189883480431e-06,0.0006414816249160162,-0.00718741341694401,-41.75718732119919,46.97108836101011,5.0158131826722,-1656349.2340258989,5093986.420806021,3595739.1768330326,-188.78542729764712,-4617.560390490062,6430.751151957729,0.9947884428180123,-2.414568996535184e-05,0.00022774343553834346,0.10196029416212816
0.715,-2.3828319589929593e-05,0.0006392092548519279,-0.007204838860133903,-41.74709201612958,46.96015619169806,5.014930757838531,-1656350.1772887604,5093963.332998978,3595771.331012848,-188.51971727793082,-4617.56242706328,6430.920774017641,0.9947902743682573,-2.4297449586618122e-05,0.0002293399721071235,0.10194241921368533
0.72,1.6372356837558684e-06,0.0006279920685676712,-0.007198534679597768,-41.74004102082427,46.94721007131063,5.016105905181012,-1656351.1192232443,5093940.2451817375,3595803.486040697,-188.25407624452558,-4617.564469214931,6431.090365610252,0.994792110034433,-2.4523747272507337e-05,0.00023092315950518856,0.10192450091278704
0.725,-1.3394915257072914e-05,0.0006233935868544324,-0.007199712368434255,-41.736958714094186,46.936301118813795,5.007353235827914,-1656352.0598296768,5093917.1573543195,3595835.641916415,-187.98849684117803,-4617.5664980143,6431.259921755524,0.9947939437773081,-2.4683850711993594e-05,0.00023248493920332447,0.10190659824295267
0.73,2.7685123795024074e-06,0.0006395867982180251,-0.007184920193596713,-41.73098094258193,46.908697861255675,5.012381543729852,-1656352.999108281,5093894.069516702,3595867.7986397687,-187.722944857287,-4617.568549079791,6431.4294196280125,0.9947957774972944,-2.4880168020635747e-05,0.00023403145271009662,0.10188869261998555
0.735,3.5755230581170984e-05,0.0006451379703539419,-0.007210880916640033,-41.73496531988366,46.89166850365638,5.009708237036818,-1656353.9370593461,5093870.981668989,3595899.9562103986,-187.45748115655007,-4617.570535818534,6431.598832417718,0.9947976071168164,-2.504040315551195e-05,0.00023562235658269577,0.1018708237413414
0.74,1.2490631770258155e-05,0.0006366138687322592,-0.007170729481474022,-41.72397802191679,46.88683449019731,5.008735521751099,-1656354.8736831292,5093847.893811419,3595932.1146279126,-187.19203207501891,-4617.572492299513,6431.768173152169,0.994799443022037,-2.5120029559896028e-05,0.00023723546544550294,0.10185289024550567
0.745,2.3882558394453586e-06,0.0006193376851574812,-0.0071840215298234755,-41.71995830406068,46.86614586302304,5.007017320722224,-1656355.8089798214,5093824.805944012,3595964.273892117,-186.92664483673107,-4617.574470492479,6431.937508694974,0.9948012683829498,-2.5255320656617427e-05,0.00023882145340710947,0.10183505658738828
0.75,-1.9242472467261877e-05,0.0006411772290090149,-0.0071738880985519225,-41.72118192100322,46.849205647844094,5.001833310347573,-1656356.7429497233,5093801.718066779,3595996.434002806,-186.66131591517282,-4617.5764226932315,6432.106766697981,0.9948030968147844,-2.541134601935584e-05,0.00024036190258860506,0.10181718984598831
0.755,3.1254480650905595e-05,0.0006299201335601061,-0.00719005266182636,-41.70478068219176,46.8250379269113,5.0058100893610815,-1656357.6755930397,5093778.6301798215,3596028.5949595934,-186.39601057841784,-4617.578360413678,6432.275948284474,0.9948049223298211,-2.5626720175834304e-05,0.00024195116150055397,0.10179934828507174
0.76,1.140777445531085e-05,0.0006272203563000665,-0.007199289657594454,-41.706802245982416,46.81746763891213,5.003740980907146,-1656358.6069101477,5093755.542283252,3596060.756762125,-186.13083262445238,-4617.580267175577,6432.445064496209,0.9948067516455363,-2.5713652645316228e-05,0.00024352527415566475,0.10178146645978856
0.765,-4.1233138058841263e-07,0.0006029490008155113,-0.007179758595478415,-41.7011527010358,46.79879665619427,5.000629095940945,-1656359.5369013834,5093732.454377167,3596092.9194101626,-185.86566173276339,-4617.582166972512,6432.614150392458,0.9948085829877064,-2.5849262855103646e-05,0.0002450876216788277,0.10176356164101744
0.77,-2.404826066333087e-05,0.0006332869758325628,-0.007165684378918792,-41.69439933056104,46.78941021558377,5.003336204536103,-1656360.4655669155,5093709.366461614,3596125.0829034494,-185.60055101739988,-4617.584054261793,6432.783164420423,0.994810409051373,-2.600808309731656e-05,0.0002465865998623322,0.10174570537211142
0.775,2.408940249320641e-06,0.000621820149959337,-0.0071517253442794845,-41.68298792020678,46.76938024241164,4.992744367653852,-1656361.3929070332,5093686.278536654,3596157.247241764,-185.33549606667628,-4617.5859296572,6432.952161421624,0.9948122311925627,-2.623339472267585e-05,0.0002481550180786611,0.10172788408578683
0.78,5.026223706102935e-06,0.0006142048360345715,-0.007154734023047398,-41.6940245174753,46.75793297249878,4.998029611200459,-1656362.318922073,5093663.190602253,3596189.41242483,-185.07051993204905,-4617.587830733627,6433.121064890061,0.9948140494714603,-2.638998157204416e-05,0.00024970164737147106,0.10171009746751301
0.785,6.190158747777167e-06,0.0006109770901352688,-0.007149367548234797,-41.66831554078532,46.74407410189106,4.987266063680118,-1656363.24361219,5093640.102658505,3596221.57845233,-184.80552685719167,-4617.589668456291,6433.289935254426,0.9948158681997964,-2.6538124629415687e-05,0.00025123000234251075,0.1016923033326479
0.79,-2.343158850595886e-06,0.000634945908329938,-0.007172375643651881,-41.677639708220894,46.72497261584825,4.9851101149823345,-1656364.1669776705,5093617.014705393,3596253.74532404,-184.54066527888526,-4617.591576001489,6433.45874861518,0.9948176852455388,-2.6682548962780022e-05,0.00025275062596467494,0.10167452251115214
0.795,-6.713058515300609e-06,0.0006464834899780465,-0.00716282695930103,-41.663655733451826,46.714913120677,4.978719483512585,-1656365.0890188303,5093593.926742865,3596285.9130396075,-184.27579871391106,-4617.593435495445,6433.62747841709,0.9948195078026676,-2.685430310931472e-05,0.00025432869042853824,0.10165668443846672
0.8,-7.952128952111726e-06,0.0006088704849015678,-0.00715138652139315,-41.66937209016025,46.693535183671436,4.989471834025278,-1656366.0097358518,5093570.838770946,3596318.081598726,-184.01100985291032,-4617.595332211292,6433.796169067914,0.9948213276034679,-2.7039851510220932e-05,0.00025593433940560516,0.10163887008292691
0.805,2.507312263880936e-07,0.0006315375908100819,-0.0071582964761305245,-41.651091151593754,46.6781102125694,4.981379464258296,-1656366.9291290087,5093547.750789785,3596350.251001164,-183.74625286082144,-4617.597132184749,6433.964806062443,0.9948231442003221,-2.7218916858304037e-05,0.0002574461286800676,0.10162108415091133
0.81,-2.6970490759805694e-06,0.000621964385505699,-0.007162898133964274,-41.65446457677145,46.662921366992435,4.972758083235882,-1656367.8471986416,5093524.662799523,3596382.4212466315,-183.48160031410978,-4617.5989726105845,6434.133380912477,0.9948249622179535,-2.7383344296777817e-05,0.0002590163757641194,0.10160328099385861
0.8150000000000001,-4.322243556586038e-06,0.0006102374267923452,-0.0071397181355811095,-41.64068464670677,46.642880235005066,4.973649328048017,-1656368.7639450275,5093501.574800062,3596414.592334771,-183.2169540706143,-4617.600811639241,6434.301875001672,0.9948267810891934,-2.7552674347063954e-05,0.0002605620645301212,0.10158546636195026
0.8200000000000001,-1.5243348717328981e-06,0.000641341105852497,-0.007155941032455414,-41.638777397010145,46.623663102883285,4.975777530192922,-1656369.6793684426,5093478.486791443,3596446.7642652327,-182.95241197900486,-4617.602635881916,6434.4703095763825,0.9948285937607426,-2.7723053034974983e-05,0.0002620781763370783,0.10156770934940514
0.8250000000000001,1.6046833855947607e-05,0.0006484949864891702,-0.007137293186726013,-41.629606453409195,46.60396891832016,4.979169243372705,-1656370.5934692747,5093455.398773809,3596478.93703771,-182.68792090058204,-4617.604417965217,6434.63868147508,0.9948304102113058,-2.7894381567808573e-05,0.0002636723544515227,0.10154991195268537
0.8300000000000001,-3.1843785641564293e-06,0.0006171009021042276,-0.007149541247172367,-41.62556896635951,46.587249294939234,4.981518356098183,-1656371.506247867,5093432.310747347,3596511.11065191,-182.4235158924589,-4617.606166711031,6434.806998402442,0.9948322216040102,-2.8023813156753205e-05,0.0002652887869031519,0.10153216088981389
0.835,1.9908688004034488e-05,0.0006288362923906424,-0.007160544927215812,-41.6222116887331,46.5838576103161,4.967155585683397,-1656372.4177045745,5093409.222712224,3596543.285107569,-182.15916722542556,-4617.607882465606,6434.975265218149,0.9948340358053468,-2.819311366124207e-05,0.00026682225732825094,0.10151437934734772
0.84,1.5361134054270547e-05,0.0006343162469631754,-0.007154711940832845,-41.614025113311385,46.56030454635197,4.969818352395093,-1656373.3278395585,5093386.134668367,3596575.460404454,-181.8948263098491,-4617.609660300304,6435.143488709119,0.9948358524723342,-2.8307965352334808e-05,0.0002683907745017566,0.10149657038883397
0.845,-1.9064001217761863e-05,0.0006378359185850441,-0.007141183805565492,-41.610886135130094,46.545696031159345,4.974791108058943,-1656374.236653057,5093363.046615724,3596607.6365422723,-181.63057308167365,-4617.6113967871615,6435.311638700238,0.9948376673342259,-2.8435513786256356e-05,0.0002699717672368265,0.10147877590739136
0.85,-5.084211620175559e-07,0.0006195563047069686,-0.007151968418388443,-41.60261397114834,46.522351856787644,4.96990264123438,-1656375.144145419,5093339.9585545,3596639.8135207533,-181.3663717146448,-4617.613092957368,6435.479753738026,0.9948394784390469,-2.8649564563581973e-05,0.00027155278104999713,0.10146101506201713
0.855,8.048460803463552e-08,0.0006234457540546822,-0.007162465215000721,-41.58915119896267,46.50304429946059,4.967844044444367,-1656376.050316969,5093316.870484822,3596671.9913395755,-181.1022483162335,-4617.614778199514,6435.64777503568,0.9948412919731291,-2.8812836423761725e-05,0.00027309303746950755,0.10144322735032046
0.86,1.410515721576049e-05,0.0006353000620221435,-0.00716579867498722,-41.58196703227273,46.48788191762116,4.960218685172963,-1656376.955168146,5093293.782406723,3596704.1699983412,-180.838222494372,-4617.616461268299,6435.815731235909,0.9948431078457594,-2.8975637167447716e-05,0.00027464311585810813,0.10142541349860175
0.865,1.0239120786568283e-05,0.0006210073539646815,-0.007142096805155738,-41.58589850594869,46.472922613082,4.960573605287071,-1656377.8586993308,5093270.694320168,3596736.3494967152,-180.5742514803226,-4617.618160723963,6435.983618366189,0.9948449242349207,-2.9106565138557762e-05,0.0002762262330034489,0.10140759131293418
0.87,-1.28710325816635e-05,0.0006445847458031871,-0.007137114691991965,-41.572323094656575,46.44895558262751,4.953946195559067,-1656378.760910698,5093247.60622521,3596768.529834387,-180.31029533189857,-4617.619822748011,6436.151450302709,0.9948467343041218,-2.9243468526643448e-05,0.00027777282410068745,0.10138982804750127
0.875,-5.750954303706867e-06,0.0006252396476830489,-0.0071344311003580674,-41.56776781669531,46.446178232306934,4.96114703894721,-1656379.6618025359,5093224.518121928,3596800.711010976,-180.04643979875837,-4617.621490120236,6436.319185525991,0.9948485427729844,-2.944382236634412e-05,0.00027937219736496715,0.10137207715493515
0.88,-1.4878107982171786e-06,0.0006258825769314703,-0.007123150673416423,-41.55882780062723,46.41254039250394,4.962783880256115,-1656380.5613751952,5093201.430010356,3596832.8930262933,-179.78262393172892,-4617.623138411605,6436.4869411988575,0.9948503502566656,-2.962156319165154e-05,0.0002809252615732922,0.10135433290072146
0.885,1.232553274886349e-05,0.0006194345253333933,-0.007117422091122011,-41.5558704986215,46.39797744708762,4.951915147872745,-1656381.4596290449,5093178.341890691,3596865.0758800963,-179.51891594841393,-4617.624727791566,6436.654580113938,0.9948521545634899,-2.9788856019715917e-05,0.0002824810057931989,0.10133661666686752
0.89,7.375326280328266e-06,0.0006479772271164801,-0.007132668558808371,-41.541901015756,46.385761947820704,4.950205374287983,-1656382.356564431,5093155.253763024,3596897.259571896,-179.25523853309022,-4617.626338988094,6436.8221397403,0.9948539571069629,-2.992015564691217e-05,0.00028402421269822103,0.10131891463911409
0.895,-1.1958227670195548e-05,0.0006326552389867337,-0.007141411947608952,-41.54100300268863,46.36417316562785,4.94855934311956,-1656383.2521816487,5093132.165627267,3596929.4441014063,-178.99164856325876,-4617.62796386421,6436.989664401769,0.994855763173532,-3.0071007710605812e-05,0.00028563715404763775,0.10130117466031695
0.9,1.2543401942019361e-05,0.0006061899952465515,-0.007111165483217403,-41.540214914909036,46.34000492891938,4.953024381209654,-1656384.1464810313,5093109.077483472,3596961.6294683306,-178.7281044576127,-4617.629553850681,6437.157105344811,0.9948575711446066,-3.026607091367784e-05,0.00028720709044828356,0.10128341291794098
0.905,7.153309067340468e-06,0.0006259456744572615,-0.0071099621385256,-41.520849590090634,46.32677812088856,4.945367622824984,-1656385.039462838,5093085.989331891,3596993.8156722668,-178.4646182087972,-4617.631078757875,6437.324469081641,0.994859371159718,-3.0393472084735953e-05,0.0002887174101970936,0.10126572635489456
0.91,9.78890576803353e-06,0.0006194487853036632,-0.0071125488004905035,-41.519697002685966,46.31467683439661,4.939540029601233,-1656385.931127478,5093062.90117257,3597026.0027128933,-178.20123776653233,-4617.632649525674,6437.491781588309,0.9948611705387789,-3.053927977158193e-05,0.0002902755006727314,0.10124804275489409
0.915,1.7172582561492008e-05,0.0006156567299073033,-0.007112111709925501,-41.51361777321839,46.28821361939268,4.93964453943497,-1656386.821475277,5093039.813005386,3597058.190589941,-177.93788180357237,-4617.634224148904,6437.6590373713625,0.9948629702606423,-3.067688970048802e-05,0.0002918180992240826,0.10123035268780702
0.92,-1.1395415322149315e-05,0.0006147978459730667,-0.007100363724242517,-41.49347575665255,46.27666088344657,4.945626358173854,-1656387.7105064963,5093016.724830435,3597090.3793030316,-177.67460592756038,-4617.635756419738,6437.826198811228,0.9948647695583152,-3.0795175256417816e-05,0.0002933531349077764,0.10121266367049091
0.925,9.629560793745565e-06,0.0006180237584087652,-0.007103370206906718,-41.49765549026634,46.25023495645072,4.9393377817843565,-1656388.5982216455,5092993.636647828,3597122.5688519147,-177.41145382308252,-4617.637286209303,6437.993354597777,0.9948665655654556,-3.0984288098540386e-05,0.00029487880661131994,0.10119500386115085
0.93,-5.878004179518821e-06,0.0006204240461944377,-0.007122371791044959,-41.494701513037775,46.24303629988226,4.9397874249276486,-1656389.484621099,5092970.548457668,3597154.7592362757,-177.14832751110708,-4617.638777887828,6438.160389733011,0.9948683620164758,-3.112192664829127e-05,0.0002964178204257364,0.10117733652629878
0.935,-1.1251890232768348e-05,0.0006377068146483154,-0.007107000483240706,-41.49271876703797,46.21247772118576,4.9340358674660685,-1656390.369705,5092947.460260064,3597186.9504557676,-176.88523294560335,-4617.6402636085895,6438.327407086086,0.9948701629538665,-3.1298756370370054e-05,0.0002979588800579419,0.10115962191032916
0.9400000000000001,2.4872957004563925e-05,0.0006438598978976634,-0.007107411020896964,-41.46907314768388,46.20265999318354,4.92881387533984,-1656391.2534735822,5092924.3720551245,3597219.1425100197,-176.62219994782802,-4617.6417122678495,6438.494293668566,0.9948719596733675,-3.149331122546159e-05,0.000299541567023868,0.10114194549589499
0.9450000000000001,-1.910588768863694e-06,0.0006060410164218132,-0.007111474064281352,-41.47016785317996,46.17400702756793,4.924225568041618,-1656392.1359273044,5092901.2838428095,3597251.3353986368,-176.35928890261596,-4617.643213756315,6438.661153200651,0.9948737561782723,-3.1599573221086435e-05,0.00030114869203043567,0.10112426800065259
0.9500000000000001,1.4407720141863696e-06,0.0006215292883933612,-0.007101032710915759,-41.46271008520001,46.16066296749021,4.918115049156292,-1656393.0170665858,5092878.195623096,3597283.5291212457,-176.09642368013377,-4617.644671586921,6438.827890398493,0.9948755534200004,-3.176289286580216e-05,0.0003026549829223403,0.10110658039083183
0.9550000000000001,1.5066402485076e-05,0.0006154622398931268,-0.007106573711293116,-41.43862005782349,46.140011444604745,4.9298359246011945,-1656393.8968916778,5092855.107396056,3597315.7236773972,-175.8336130395057,-4617.646144470774,6438.994570248826,0.9948773476947085,-3.192178404835179e-05,0.0003042006439165701,0.10108891871471427
0.96,-1.1373941812743112e-05,0.0006135741618082972,-0.007091522600933375,-41.43453597621753,46.11543004925473,4.923803631777984,-1656394.7754031292,5092832.019161746,3597347.91906689,-175.57096761254022,-4617.647579451161,6439.161226781227,0.9948791430592884,-3.204525657850854e-05,0.0003057346579497585,0.10107124321505392
0.965,-1.457463353574293e-05,0.0006416701381997325,-0.007085396882635504,-41.43961748659288,46.11057018885464,4.924088497347073,-1656395.6526015033,5092808.930920307,3597380.1152894013,-175.30838199867972,-4617.648996442832,6439.327777749666,0.9948809343043924,-3.223400288607426e-05,0.00030725729617177695,0.10105360513876971
0.97,1.636918359852878e-05,0.0006193430370211614,-0.007106480317251654,-41.425544242606215,46.075208666753625,4.920429634372813,-1656396.5284869275,5092785.842671823,3597412.312344629,-175.04578763685709,-4617.65039700683,6439.494313242165,0.9948827236652087,-3.2437803245195694e-05,0.00030884900656469755,0.10103598226659699
0.975,5.15770228273154e-06,0.0006348838063307836,-0.0071130842644244055,-41.4195912388793,46.06485981092866,4.922046659167428,-1656397.4030596972,5092762.7544164155,3597444.5102321976,-174.78332032714556,-4617.651765961993,6439.660714315558,0.9948845180556709,-3.2559016598854416e-05,0.00031039299912922336,0.10101830690143274
0.98,4.899829516335429e-06,0.0006209648643384179,-0.007074351458699048,-41.40618953489031,46.03940216877987,4.917497502667921,-1656398.2763202614,5092739.666154192,3597476.70895171,-174.52090536208846,-4617.653123251773,6439.827090556819,0.9948863137841981,-3.271204514516541e-05,0.0003119728128221869,0.10100061508612816
0.985,-5.720134212111525e-06,0.0006198362601964207,-0.007064334642094834,-41.404178568411005,46.01705423545458,4.909553285113434,-1656399.1482690135,5092716.577885199,3597508.9085028605,-174.25859545531844,-4617.654473788065,6439.993369570831,0.9948880994281157,-3.286217030310706e-05,0.00031351794505834384,0.10098301957699433
0.99,1.6258864144189008e-06,0.0006256583016355087,-0.007087667000785226,-41.39780541479753,46.00286967203515,4.906753711241865,-1656400.018906326,5092693.489609478,3597541.1088851467,-173.99632953321847,-4617.655814699319,6440.159544969084,0.9948898822300799,-3.3038416863763416e-05,0.0003150575898416681,0.10096544895852147
0.995,-4.407137272838975e-06,0.0006109530984392097,-0.0070913775750507555,-41.390183387427534,45.99092720860369,4.911241628953909,-1656400.8882324474,5092670.401327059,3597573.3100981787,-173.73411903466197,-4617.657153383149,6440.325667893308,0.9948916706037209,-3.319788015017174e-05,0.0003166135675594551,0.10094782026912213
1.0,8.267265476153641e-06,0.0006208828304705897,-0.007085375222898069,-41.37376108092487,45.96852317020268,4.901497891555385,-1656401.7562476823,5092647.313038003,3597605.5121417707,-173.47197489245374,-4617.658468832292,6440.491768893655,0.9948934596100305,-3.336864073013454e-05,0.0003181314471071569,0.10093018232471769
1.0050000000000001,-1.605368362207961e-05,0.0006186984937441253,-0.0070831427317156696,-41.37161287330382,45.939689513779165,4.904030357479187,-1656402.6229524624,5092624.224742303,3597637.7150156256,-173.20993713495696,-4617.659811187684,6440.657772988419,0.9948952467801664,-3.3510377848856894e-05,0.0003196772226930102,0.10091255926672216
1.01,-1.0880480202394364e-05,0.0006199658938591433,-0.007078236655080816,-41.36700700802596,45.93237029705746,4.8957753972954015,-1656403.488347228,5092601.1364400545,3597669.9187192493,-172.9479690960065,-4617.661088020484,6440.823676543894,0.994897033072339,-3.371205409692248e-05,0.00032121142967624316,0.10089494174918863
1.0150000000000001,-6.34522472650896e-07,0.0006121484339023678,-0.0070806066354001515,-41.3625028457672,45.9141164526758,4.905210815623882,-1656404.3524322235,5092578.048131344,3597702.1232522875,-172.68602917865684,-4617.66239627176,6440.9895387799315,0.9948988178122956,-3.390117906843237e-05,0.0003227500941782171,0.1008773363981392
1.02,6.512348716646879e-07,0.0006119937098558721,-0.007040579299334945,-41.3407455145621,45.889445372235805,4.898798265183427,-1656405.2152076948,5092554.959816251,3597734.328614546,-172.42415932825048,-4617.663640909758,6441.155364676389,0.9949006028431203,-3.406285020210024e-05,0.0003242718983856046,0.10085972511292057
1.025,-1.426567729688045e-05,0.0006212281437975805,-0.007072180447985768,-41.33887075688784,45.866482162535185,4.891304550255668,-1656406.0766741636,5092531.871494886,3597766.5348057034,-172.16242812009847,-4617.664905025747,6441.321098176948,0.9949023774689968,-3.4221251860282165e-05,0.0003257936452650248,0.100842213353063
1.03,-1.0718122056643975e-05,0.0006353667927303157,-0.007068321187441443,-41.3277171654812,45.851038444959634,4.886064783025844,-1656406.9368320885,5092508.783167234,3597798.7418252653,-171.90074189931832,-4617.666155999014,6441.486726643584,0.9949041597409168,-3.441910947670694e-05,0.00032733459710330856,0.10082462297279784
1.035,3.407342930880003e-05,0.0006383904378552931,-0.007060719838583954,-41.323708263413394,45.82939317933717,4.896089423741376,-1656407.7956817723,5092485.694833291,3597830.9496728186,-171.6391316436654,-4617.667421257405,6441.652294642605,0.994905940715509,-3.461170404031602e-05,0.00032891160987448743,0.1008070421556496
1.04,-2.4435084793448923e-05,0.0006119215922668782,-0.007052920956400429,-41.315737012835186,45.81767456851929,4.896246150795433,-1656408.6532235916,5092462.606493208,3597863.1583480895,-171.3775960760124,-4617.668611745144,6441.817813751708,0.9949077194629582,-3.4693645903050156e-05,0.00033050743206573547,0.10078948017627655
1.045,-1.783296778658261e-05,0.0006277442782020451,-0.0070630312440539775,-41.30929735701519,45.79282858251224,4.8848678939329755,-1656409.509457888,5092439.518147185,3597895.367850874,-171.11612243238844,-4617.6697972003385,6441.9832999890195,0.9949094959499959,-3.491443828878552e-05,0.00033202267707593244,0.10077193761384647
1.05,5.460061767440351e-06,0.0006046488447386649,-0.007086217539769631,-41.30160738876401,45.760354397828884,4.881298265993693,-1656410.3643849755,5092416.429795218,3597927.57818079,-170.8547126258683,-4617.670989877374,6442.14866645744,0.9949112746594081,-3.512280399022975e-05,0.00033357893972099406,0.10075436986588511
1.055,3.5134983452038155e-05,0.0006348631069086739,-0.00705555553308486,-41.2877987919401,45.74173132286566,4.877385435637988,-1656411.2180052472,5092393.341437383,3597959.7893372187,-170.59339602653998,-4617.6721440423435,6442.313905072255,0.994913058916841,-3.5267435357826944e-05,0.0003350836226434219,0.10073674439800219
1.06,1.117439776057155e-05,0.0006292360173908017,-0.007069951906235702,-41.2741727582162,45.720128996084206,4.878742207607019,-1656412.070319174,5092370.253073759,3597992.001319672,-170.33217471204966,-4617.673305393213,6442.47907621433,0.9949148351163131,-3.5345840326733336e-05,0.0003366709329612547,0.10071919513595234
1.065,-1.253333039527318e-05,0.000630829760310356,-0.007046264859573347,-41.269388455776365,45.70556867325341,4.87839549174438,-1656412.9213272608,5092347.1647043815,3598024.2141278186,-170.0710599880227,-4617.674445864827,6442.644182367051,0.994916614630713,-3.548243736721593e-05,0.0003382382124867898,0.10070161005500114
1.07,-6.030500212399527e-06,0.0006345579999515061,-0.007044155549834794,-41.25622585499765,45.678537463312544,4.86128203057961,-1656413.7710299043,5092324.076329341,3598056.4277613745,-169.8099973368822,-4617.675570252866,6442.809240030541,0.9949183878661101,-3.5678383629683636e-05,0.0003398034895946445,0.1006840838789423
1.075,1.2519323543242157e-06,0.0005967099133109312,-0.00705524309558081,-41.249603383855515,45.66322835719995,4.871980617897096,-1656414.6194274605,5092300.9879485825,3598088.6422198713,-169.54902521684204,-4617.676733169558,6442.974158573088,0.9949201602568531,-3.5859092061792946e-05,0.00034137967684855935,0.10066656291201832
1.08,-2.280449050737387e-05,0.0006152901708953341,-0.007035295363600295,-41.23676425922812,45.63830490892513,4.865190086482527,-1656415.4665203458,5092277.899562153,3598120.857502912,-169.28812891331575,-4617.677838502878,6443.139057957581,0.9949219351595178,-3.6012171255912e-05,0.00034286355618423376,0.100649014332708
1.085,-6.111873260598993e-06,0.0006197817202847015,-0.007032731477445802,-41.22677488604173,45.61613706943337,4.87401031711856,-1656416.312308996,5092254.811170192,3598153.073610196,-169.0273311387191,-4617.6789458704225,6443.303855367772,0.9949237047138566,-3.622974420889522e-05,0.00034438759883511234,0.10063151535698027
1.09,7.715241106730855e-06,0.0005972302247706718,-0.0070256302412523034,-41.22410701597251,45.60030900861202,4.868601150299067,-1656417.1567939094,5092231.722772842,3598185.2905413425,-168.76663417955643,-4617.679994224018,6443.468603263262,0.9949254733107841,-3.640692522023579e-05,0.0003459270129917132,0.10061402271229303
1.095,1.0880541141456202e-06,0.0006156694498936666,-0.007038758593277161,-41.20367613768701,45.58124489740813,4.866531710610416,-1656417.9999754336,5092208.634370259,3598217.5082960543,-168.50597552463216,-4617.681039168421,6443.633281540994,0.9949272398327179,-3.6544035216504735e-05,0.00034741381304765354,0.10059654768939894
1.1,-4.182178676124229e-06,0.0006070148404635302,-0.007021925096611319,-41.186928339893655,45.55606891814638,4.858432612533757,-1656418.8418539846,5092185.545962419,3598249.7268740106,-168.24544493968776,-4617.6820965004745,6443.797901087134,0.9949290093299048,-3.670227783195713e-05,0.0003489448093340677,0.10057903998486553
1.105,-2.583451720766743e-06,0.000620566588370435,-0.007036794208389565,-41.18997216336801,45.52466451763922,4.86094328746566,-1656419.68243017,5092162.457549257,3598281.9462748067,-167.98502916311594,-4617.683168401976,6443.9624171822725,0.9949307742917468,-3.6871438339033676e-05,0.00035045295506409304,0.10056157412475421
1.11,-2.4755188680941465e-06,0.0006010757375616424,-0.006998609814787331,-41.184034660180274,45.50603952314086,4.858569678342474,-1656420.5217044035,5092139.369130941,3598314.166497894,-167.72466422459334,-4617.684158202202,6444.126817792008,0.9949325426704142,-3.704004226811281e-05,0.00035199520886828456,0.10054407124635809
1.115,5.058748727203747e-06,0.0006243260874222952,-0.007031087421814955,-41.16797330861334,45.498162742144586,4.85767485294787,-1656421.359676967,5092116.280707713,3598346.38754281,-167.46436116582228,-4617.685132891617,6444.291148612784,0.9949343011596431,-3.720344489535523e-05,0.00035348901302483795,0.100526663315729
1.12,-1.94089099112322e-05,0.0006319912055006509,-0.00702383923786448,-41.15436052012634,45.46491416983679,4.849593975098272,-1656422.1963482397,5092093.19227955,3598378.609409346,-167.20414793582586,-4617.686132038702,6444.455465753539,0.99493606748286,-3.73539791593938e-05,0.0003550425389645612,0.10050917456241303
1.125,-7.561685109086182e-06,0.000618142134146032,-0.007032019050925457,-41.14282571778396,45.448332298154675,4.842571294538498,-1656423.0317187344,5092070.103846419,3598410.8320971206,-166.9440499643124,-4617.687120685397,6444.619644092831,0.9949378316661661,-3.7567292405129435e-05,0.00035660898316636653,0.10049170382752698
1.1300000000000001,1.8794023568607888e-05,0.0006176243656514648,-0.007002313520015006,-41.14359274866068,45.42477855223136,4.849458593542696,-1656423.8657889327,5092047.015408295,3598443.055605612,-166.6840293128785,-4617.688128683207,6444.783752540527,0.9949395976083727,-3.774766550934027e-05,0.0003581439554459349,0.10047421270609869
1.135,1.1719602903542587e-06,0.000605699945748685,-0.0070083547329250935,-41.132447934651374,45.405713850453346,4.833329672558958,-1656424.698559159,5092023.926965323,3598475.2799344724,-166.42406119382906,-4617.689060008336,6444.947791512107,0.9949413557833572,-3.7862326103274813e-05,0.00035968426271946736,0.1004567954179825
1.1400000000000001,1.0794147651878488e-05,0.0006164653284365082,-0.006983420847649963,-41.12165675736507,45.38495602671821,4.843043500868794,-1656425.5300297153,5092000.838517574,3598507.505083263,-166.16416139788325,-4617.690040016479,6445.111724701634,0.9949431151771054,-3.801782969410294e-05,0.0003611904834237334,0.10043936308916271
1.145,1.1035081811914284e-06,0.0006153941197422538,-0.007024108243354413,-41.09843548122626,45.358387195442205,4.830995063530795,-1656426.3602010303,5091977.750065068,3598539.7310516173,-165.9043645569099,-4617.690962280304,6445.275617196304,0.9949448679945212,-3.8152080106317714e-05,0.00036272589986088177,0.10042199273916684
1.1500000000000001,-4.171729986657529e-06,0.0006092426698679752,-0.0070100492188830375,-41.099077397366706,45.34059390979373,4.832031468644995,-1656427.189073714,5091954.66160785,3598571.9578391477,-165.64470891029498,-4617.691924628182,6445.43939478665,0.9949466307193657,-3.831020260042618e-05,0.0003642562149378997,0.10040452116274615
1.155,-8.08629230216131e-06,0.0006107087788809708,-0.006997532820822562,-41.09396785103111,45.3059872534372,4.839142926401744,-1656428.0166482073,5091931.573145922,3598604.1854454093,-165.3850884656308,-4617.692846818039,6445.603110020994,0.9949483896118099,-3.847988964756449e-05,0.00036576990619325786,0.10038708453053165
1.16,-1.6058340119167772e-05,0.00060117086686059,-0.007004804405195213,-41.0816483176197,45.293826096942695,4.83406531554838,-1656428.842924846,5091908.48467961,3598636.413869975,-165.12556701200162,-4617.693678064062,6445.766716327754,0.9949501450539776,-3.8659670152215524e-05,0.00036728626286795834,0.1003696790036705
1.165,-4.11459056664099e-06,0.000629818377766258,-0.006991457042354604,-41.078025892448814,45.27652117535872,4.8291774387729145,-1656429.667904066,5091885.396209083,3598668.643112458,-164.86612090086965,-4617.694532708352,6445.930276721686,0.9949519020216597,-3.885689350422509e-05,0.0003687768939794342,0.10035225536691252
1.17,1.59829643897285e-05,0.0006202762548756521,-0.006992047365835382,-41.05400308939852,45.24616994372783,4.8212845976338095,-1656430.4915861695,5091862.3077343,3598700.873172559,-164.60672059598957,-4617.695380395167,6446.093763652807,0.9949536553085963,-3.903158300374202e-05,0.0003703417799679195,0.10033486488536601
1.175,-1.2763931034704872e-05,0.0005947316779754822,-0.006988492821393866,-41.047809373061824,45.22751147800755,4.819999299851248,-1656431.313971664,5091839.219255237,3598733.1040497995,-164.34747718873237,-4617.6962447253845,6446.257132575685,0.9949554084479861,-3.9153889179348765e-05,0.0003718879720732772,0.10031747288688166
1.18,2.680851702367065e-06,0.000591090328503384,-0.006998377076241913,-41.043505706222426,45.20468770084389,4.818200727251836,-1656432.1350611025,5091816.1307719005,3598765.335743718,-164.08829817946318,-4617.697089992009,6446.420434742635,0.9949571604106983,-3.9341290317368766e-05,0.0003733634155850276,0.10030008972828888
1.185,1.1275924750985708e-06,0.0006028564114699086,-0.006976301328315523,-41.02578774836978,45.18742661283086,4.815428649661146,-1656432.9548548027,5091793.042284413,3598797.56825393,-163.82918188336706,-4617.697904818491,6446.58365020263,0.9949589145504864,-3.9489370357187234e-05,0.0003748336733255896,0.10028268193873281
1.19,-5.18170510025563e-06,0.000598786566225131,-0.006984255938170955,-41.011564985395154,45.162934256870976,4.81499484253429,-1656433.7733532004,5091769.953792818,3598829.8015800803,-163.57017724574783,-4617.698733281313,6446.746809908975,0.9949606628387352,-3.9644243106678934e-05,0.00037633281064067264,0.1002653290298021
1.195,-2.0646901293452708e-05,0.0006010438625422263,-0.006988357735735138,-41.01012297011124,45.13335044072578,4.8149281130647905,-1656434.5905568548,5091746.865297129,3598862.0357218254,-163.31128455875734,-4617.699542363267,6446.909888122492,0.9949624128188794,-3.981379692429024e-05,0.00037782024220261903,0.10024795631014136
1.2,-2.0025449689153182e-05,0.0006032026358313118,-0.006977767296910194,-40.993766907044964,45.10892587782182,4.810285699565325,-1656435.4064662065,5091723.776797541,3598894.2706786823,-163.05245609090716,-4617.700292763011,6447.072854644053,0.9949641635175885,-4.002238854969068e-05,0.00037930941216688036,0.10023057337122096
1.205,-3.1665184049646286e-06,0.0006075794602233302,-0.006977168880669684,-40.98076539262916,45.0947032132207,4.80370726933362,-1656436.2210817058,5091700.688294197,3598926.5064501436,-162.79374360449935,-4617.701044913192,6447.235729927128,0.994965911255106,-4.022996525269212e-05,0.00038080410855059207,0.10021321674348842
1.21,3.4225013994848878e-06,0.0006057049609387602,-0.006981914818999485,-40.975033455755565,45.06091804665088,4.8061936554709215,-1656437.0344038429,5091677.599787028,3598958.7430358366,-162.5351112397157,-4617.701822997266,6447.398547215249,0.994967658535199,-4.039670275797059e-05,0.0003823139155747552,0.10019586155705247
1.215,-1.8463897196013093e-05,0.0005989905176735888,-0.0069478350891907315,-40.96145643424133,45.03828804461858,4.809781138415646,-1656437.846433054,5091654.511276141,3598990.9804353206,-162.27657313835323,-4617.702531438382,6447.561246410818,0.9949694067013385,-4.054658559026388e-05,0.0003838207098182178,0.10017849452863388
1.22,-1.9315538203885153e-05,0.0005989236213381959,-0.00696802520097031,-40.947374685399744,45.02571013302359,4.8055171039047675,-1656438.6571698515,5091631.422761793,3599023.2186481426,-162.01814588817047,-4617.703207583788,6447.723882374355,0.994971146032644,-4.074919484442085e-05,0.0003853053243687496,0.1001612122620184
1.225,-6.210810300231746e-06,0.0006072055121623221,-0.006956630241881435,-40.94036428901099,44.99610389077259,4.797975032217836,-1656439.466614725,5091608.334244008,3599055.4576740344,-161.75980359429144,-4617.703906494167,6447.886474339865,0.9949728901163003,-4.095392517907802e-05,0.0003867895570917054,0.10014387974425186
1.23,-5.647876399759655e-06,0.0006136619004826096,-0.0069776706388051755,-40.930449134699025,44.97371044187455,4.79214064383802,-1656440.2747680864,5091585.2457227735,3599087.6975125656,-161.50154088387993,-4617.704587498304,6448.048938159194,0.9949746310367487,-4.112812081181289e-05,0.000388297672401129,0.1001265755265862
1.235,8.515352275620303e-06,0.0005948902448348,-0.006960473760026038,-40.91653755194479,44.94834073367623,4.79377733795514,-1656441.0816303387,5091562.157198139,3599119.938163187,-161.24336003427135,-4617.705266353021,6448.211310295913,0.9949763769135687,-4.1302552734580035e-05,0.00038982198619653925,0.1001092189404474
1.24,-5.817183981807403e-06,0.0005886206119132334,-0.006937617049946484,-40.90328595430625,44.92117737170946,4.795239342048467,-1656441.8872019735,5091539.068670185,3599152.1796254697,-160.98529392281608,-4617.705914967476,6448.373602866432,0.9949781182019329,-4.1437039651064214e-05,0.00039130315293800814,0.10009190508804769
1.245,2.2596904417072015e-06,0.00059597380811306,-0.006946191362247546,-40.89590472663627,44.90227793032218,4.787257740349456,-1656442.6914835647,5091515.980139077,3599184.421898996,-160.72734256215568,-4617.706528536545,6448.535807525837,0.9949798534730457,-4.160558674631922e-05,0.000392765140132247,0.10007464807470665
1.25,-1.0959573158166004e-05,0.0006029711877671119,-0.006954888720875523,-40.885575184085866,44.87596796851462,4.788504074234835,-1656443.4944755528,5091492.891604877,3599216.6649833308,-160.46945263094796,-4617.7071512423,6448.6979265598975,0.994981590581099,-4.175589110116299e-05,0.0003942474377465862,0.10005736969413925
1.2550000000000001,1.0910432371890782e-05,0.0006013468958226055,-0.00694894871228519,-40.86955533621104,44.85259222670361,4.782458192217562,-1656444.2961783407,5091469.80306766,3599248.908878043,-160.2116625084559,-4617.7077357146245,6448.859958113616,0.9949833295538051,-4.194083667389561e-05,0.00039574383328106817,0.1000400696611554
1.26,-5.035565606089273e-06,0.0006041885600395706,-0.006942364367872593,-40.85612399479626,44.82475910816154,4.7800377356080945,-1656445.0965924545,5091446.714527498,3599281.1535826838,-159.9539830956574,-4617.708329089721,6449.021898396917,0.9949850667420164,-4.2070969394063606e-05,0.00039724165865161334,0.10002278435178377
1.2650000000000001,-1.2403759355592633e-05,0.0005783303526576801,-0.006958696892918556,-40.84049565509146,44.80134299458593,4.775392800880173,-1656445.895718451,5091423.625984422,3599313.399096773,-159.69641542510254,-4617.708901508175,6449.183737310241,0.994986801977006,-4.224147121510658e-05,0.00039874256571986163,0.10000551540587478
1.27,-7.151518466500814e-07,0.0005726737544373951,-0.006936137935480425,-40.832318438369036,44.780361983481306,4.771770404307788,-1656446.693556886,5091400.537438476,3599345.6454198374,-159.43895856248398,-4617.709476385323,6449.345488363726,0.9949885410177519,-4.2423852534911736e-05,0.0004001773073543704,0.09998820581301032
1.2750000000000001,7.252530951611599e-06,0.0005965350648416752,-0.0069473784651902844,-40.82249075735079,44.759418730336996,4.769067576039355,-1656447.4901082222,5091377.448889686,3599377.892551454,-159.18157601346655,-4617.710040076521,6449.507158171495,0.9949902741241069,-4.257572221377694e-05,0.0004016009024411339,0.09997095229344223
1.28,1.1979452146239828e-06,0.0006030972414670944,-0.006908511471665382,-40.807867342774266,44.734147001260325,4.771149160633527,-1656448.285372853,5091354.360338104,3599410.140491226,-158.92427627974496,-4617.710592390602,6449.668750792094,0.9949920097148766,-4.27137473428276e-05,0.000403085841981192,0.09995367077246807
1.285,6.806739584422698e-07,0.0005842043377224772,-0.006922706926350937,-40.79686137164848,44.71912570125423,4.769240334825313,-1656449.0793512808,5091331.271783838,3599442.3892387683,-158.6670948001319,-4617.711114318343,6449.830265990662,0.9949937352854248,-4.2868433737311065e-05,0.0004045855958879111,0.09993648590755548
1.29,-4.81986175515353e-06,0.0005992189972403401,-0.006936597038015831,-40.792102167959555,44.688463661236725,4.759378450022044,-1656449.8720439973,5091308.183226958,3599474.6387937614,-158.40999181215798,-4617.711637704585,6449.9917312299785,0.9949954641220304,-4.301970095520497e-05,0.00040603822311361884,0.09991926570412746
1.295,7.449430407413634e-06,0.0006058345198513835,-0.006931505746377721,-40.77008654274638,44.66721526030553,4.758500651496716,-1656450.6634513696,5091285.094667501,3599506.8891557283,-158.15295709860362,-4617.712145176344,6450.153055593214,0.9949971961117261,-4.318841541453345e-05,0.0004075268234942633,0.09990201092296584
1.3,-1.511379095306471e-05,0.0006272983746451169,-0.006911070836697572,-40.767210765411136,44.63043616159198,4.75164039334077,-1656451.4535739191,5091262.006105492,3599539.1403241586,-157.8960627725881,-4617.7126582819,6450.3143166458285,0.9949989265231693,-4.3328257155422684e-05,0.0004090349446847422,0.09988476876289416
1.305,-1.1876757279639805e-05,0.0005984717343640987,-0.006898452159363266,-40.74825919820355,44.61105789556014,4.757879937243532,-1656452.242412184,5091238.917541032,3599571.3922984977,-157.6392430870227,-4617.713125703055,6450.475418835209,0.9950006515071089,-4.352956371974594e-05,0.0004105908249411465,0.09986757742521013
1.31,1.460209102431242e-06,0.0006034733866671123,-0.006927376317824745,-40.74586899471429,44.57472013845836,4.752159951398979,-1656453.029966681,5091215.828974295,3599603.645078251,-157.38255581035196,-4617.713568694773,6450.636482670838,0.9950023730716766,-4.371560807486608e-05,0.0004120758083195777,0.09985041744632818
1.315,1.1234138680942141e-05,0.0006038930096596416,-0.006909765620927344,-40.72258903183231,44.55807823123729,4.745295342291394,-1656453.8162379246,5091192.74040547,3599635.8986629383,-157.1259416209293,-4617.713961511852,6450.7973921701705,0.9950041015533398,-4.386975497366243e-05,0.0004135765593068575,0.09983318547409563
1.32,1.0505249737658054e-05,0.0005862910089511258,-0.0069044061580767705,-40.710680592732764,44.53859591565512,4.739551304958243,-1656454.6012264225,5091169.6518345745,3599668.153052022,-156.86945752531824,-4617.714396691239,6450.9582413381595,0.9950058253403723,-4.3999675631701366e-05,0.0004150807953237033,0.09981599726840629
1.325,-4.57476667972106e-06,0.0005946701219905751,-0.0069095662219809855,-40.69229815273715,44.50776575042511,4.743093001568835,-1656455.3849327138,5091146.563261483,3599700.4082451565,-156.613059007591,-4617.714839991483,6451.119012412261,0.9950075475093015,-4.412701143361741e-05,0.0004165410646853545,0.0997988223671678
1.33,-8.077900656161287e-06,0.0005957585647762961,-0.006884704456836351,-40.68781138828681,44.491863614866695,4.736314322383751,-1656456.1673573798,5091123.474686278,3599732.664241914,-156.356807363272,-4617.715241977608,6451.279690553269,0.9950092706564166,-4.4293954985447395e-05,0.0004180184141347209,0.09978163461497817
1.335,-6.675548098958356e-06,0.0006054545486932216,-0.006895516739318139,-40.67594904792725,44.458850655423305,4.74748372634728,-1656456.9485008987,5091100.38610905,3599764.9210418807,-156.10060022827747,-4617.715649223209,6451.440296135519,0.9950109873021012,-4.446985818565739e-05,0.0004194975998675246,0.09976450868065823
1.34,9.186997206094148e-06,0.0005948975752634033,-0.006886697137442103,-40.66594343427052,44.435389219055594,4.738920798266715,-1656457.7283637102,5091077.29753001,3599797.178644661,-155.8445243852129,-4617.715966720861,6451.6008158621935,0.9950127063370047,-4.4644702609002617e-05,0.00042100125306169687,0.09974735581811385
1.345,1.4698734203375574e-05,0.0005940690386964714,-0.0068658428412327775,-40.653462604874846,44.402884546796614,4.73357091219768,-1656458.506946344,5091054.2089493675,3599829.43704978,-155.58852904872472,-4617.716290388389,6451.761231841619,0.9950144228879031,-4.477744657537019e-05,0.0004224826019250217,0.09973022484926301
1.35,-2.530154978264147e-06,0.0005884226225802879,-0.006922972881038208,-40.6341802594524,44.38494725941067,4.736448318684522,-1656459.2842492806,5091031.120367162,3599861.6962566553,-155.3326456381805,-4617.716591812029,6451.921518338672,0.9950161339445392,-4.4896251282276445e-05,0.0004239632661993709,0.09971314572080442
1.355,2.5829988094197005e-06,0.0005819804713024312,-0.006889666319451731,-40.62110116186666,44.356154298990205,4.721837626769876,-1656460.0602731176,5091008.031783467,3599893.956264859,-155.07688914808307,-4617.7168859534495,6452.081763100006,0.9950178589489868,-4.5056566530321106e-05,0.00042542558337984796,0.09969592446812103
1.36,-1.2808609122957767e-05,0.0005928938218669717,-0.006888736105459141,-40.61146389848594,44.33581442386113,4.719479660065919,-1656460.8350184122,5090984.943198242,3599926.217073937,-154.82122872874535,-4617.717204140371,6452.241868064329,0.9950195753607866,-4.520252150227672e-05,0.00042687315344684657,0.09967878603235046
1.365,3.956325815050949e-06,0.000614999031562456,-0.006881756352413659,-40.59030599240624,44.31422288151585,4.7229527286396875,-1656461.608485608,5090961.854611455,3599958.4786833543,-154.56564951299302,-4617.717510454911,6452.401898979681,0.9950212912300926,-4.538948241982632e-05,0.0004283440354430456,0.09966164989594212
1.37,2.2263068198364845e-06,0.0006059295405938641,-0.006886088087765693,-40.58469820987414,44.28663732047873,4.713530380887656,-1656462.380675264,5090938.766023173,3599990.741092793,-154.31021293513228,-4617.717802603703,6452.561876505152,0.9950230050415094,-4.554023978563706e-05,0.0004298740830417942,0.09964453107182354
1.375,8.92025920307291e-06,0.0005998567647013747,-0.006878475122501131,-40.568938763015424,44.25999735307902,4.711930623325205,-1656463.1515879047,5090915.677433453,3600023.004301803,-154.0548433651748,-4617.718085769498,6452.721727486137,0.9950247196445393,-4.569304600190986e-05,0.00043138113817133125,0.09962740144541138
1.3800000000000001,-1.8390580490040366e-05,0.0005848600950510904,-0.006878454575170697,-40.54940710660801,44.237307972639286,4.707518952975613,-1656463.921224,5090892.5888423575,3600055.2683098367,-153.7995947179178,-4617.718352070276,6452.881485954969,0.995026432061909,-4.582767983689723e-05,0.0004328747548892115,0.09961029072047566
1.385,-1.4078614193671853e-05,0.0005948821415565008,-0.00687219861520441,-40.545592676630235,44.21349541537134,4.7087592096603075,-1656464.6895841698,5090869.500249904,3600087.5331164594,-153.54447323163447,-4617.718629372668,6453.041163174827,0.995028144190841,-4.6026516597873924e-05,0.0004343242651720519,0.0995931800482522
1.3900000000000001,-9.141107989141588e-06,0.0006142616304055364,-0.006872112305504292,-40.52807304349185,44.187803469646155,4.709892838800324,-1656465.4566688968,5090846.4116561785,3600119.7987212613,-153.28941761081592,-4617.718860712117,6453.200757484443,0.9950298544556245,-4.621711555152109e-05,0.0004357997801974068,0.09957608490269373
1.395,1.0896874353339478e-05,0.0005903382299296142,-0.006848086258738258,-40.51654990111681,44.16217467852893,4.71476185704427,-1656466.2224786724,5090823.323061352,3600152.0651238356,-153.03449259340636,-4617.719070189542,6453.360272173058,0.9950315643824055,-4.640025631625004e-05,0.0004373247321718675,0.09955898993459943
1.4000000000000001,2.445930821683541e-05,0.0005888247875771101,-0.006865896802858467,-40.50278966974255,44.14109718951877,4.698804813538934,-1656466.987014094,5090800.234465599,3600184.3323237984,-152.7796759525387,-4617.719230944328,6453.519713041046,0.9950332680627162,-4.652757026300281e-05,0.00043879516286044856,0.09954195468455045
1.405,1.1082589348279134e-05,0.0006029826771336926,-0.006837556797756373,-40.48608744094575,44.106777434274925,4.697786964840555,-1656467.7502756407,5090777.145868922,3600216.6003206866,-152.52494280563835,-4617.719440057583,6453.679042134786,0.9950349758839361,-4.662078942419726e-05,0.0004402652016116423,0.09952487508512141
1.41,1.049638022799609e-05,0.0006069768668340334,-0.006860022871012827,-40.46921755163753,44.07685239726302,4.693670690734413,-1656468.5122638708,5090754.057271286,3600248.8691139165,-152.2703492510089,-4617.719614213826,6453.838249857487,0.9950366763425063,-4.675077579209747e-05,0.00044176713423330945,0.09950786596758308
1.415,-8.641903541240466e-06,0.0005905729938169197,-0.0068441362925698015,-40.45815123817379,44.04235917214199,4.6890592903952655,-1656469.2729794544,5090730.96867281,3600281.138702905,-152.01588417442468,-4617.719776043952,6453.997345502889,0.9950383820914896,-4.68832388403064e-05,0.0004432788541807517,0.09949080093440847
1.42,4.563839235158234e-06,0.000585860567303225,-0.006854085324410044,-40.45565928853095,44.02148715044135,4.699239189838047,-1656470.0324229875,5090707.880073607,3600313.4090870293,-151.761529065958,-4617.719905135727,6454.156304394224,0.9950400836107687,-4.705921250032408e-05,0.0004447450094430414,0.09947377541433575
1.425,6.695964950894748e-06,0.0006264427774011866,-0.006823736938244311,-40.43106361996903,43.999092256563145,4.683464087234168,-1656470.7905949103,5090684.791473951,3600345.680265831,-151.50724005162058,-4617.7199570214,6454.315216188011,0.9950417873171227,-4.720117469275927e-05,0.0004462027248330388,0.09945672510154098
1.43,-1.689626011984578e-05,0.0005909504454071355,-0.006806668516497177,-40.42086113790216,43.97379126605566,4.683022801987775,-1656471.5474957249,5090661.70287387,3600377.952238922,-151.25308573139344,-4617.720075657446,6454.474020199146,0.9950434831394241,-4.7347889566288984e-05,0.00044776192629554675,0.09943975024705831
1.435,-1.3889297088853371e-05,0.0006015523380598544,-0.006831070685579889,-40.40379410346257,43.94598486751751,4.685871540198879,-1656472.303126005,5090638.61427327,3600410.2250058115,-150.9990263845155,-4617.720164444574,6454.632735719121,0.9950451744643019,-4.754445017244292e-05,0.00044922697360087044,0.0994228178536433
1.44,1.953900656018059e-06,0.0005760782972153208,-0.006833269686107041,-40.392602096676335,43.92672614275854,4.671530234451165,-1656473.0574863248,5090615.525672312,3600442.498566069,-150.7451014963029,-4617.720218714549,6454.791367327262,0.9950468715515814,-4.773619318492557e-05,0.0004507191386813308,0.09940582472332563
1.445,-1.0456083542531347e-05,0.0005832559793052179,-0.006828392374324512,-40.376921748044246,43.89178692500142,4.673404592496517,-1656473.8105771968,5090592.437070981,3600474.7729192297,-150.49124733699978,-4617.720313867305,6454.949896901673,0.9950485689234859,-4.7882196180233286e-05,0.0004521518709706183,0.09938882607870812
1.45,-6.190332901735301e-06,0.0005843429758196688,-0.006826534156679728,-40.36685521140867,43.86021381591885,4.673282239279356,-1656474.5623991475,5090569.348469298,3600507.0480647464,-150.23753291467946,-4617.720359101959,6455.10830973845,0.9950502647816428,-4.806084844429461e-05,0.00045359937553226355,0.0993718395509715
1.455,8.196280174984554e-06,0.0005978052995910584,-0.006821125820401204,-40.35396177039715,43.84021950685589,4.6676323637031665,-1656475.3129527909,5090546.259867503,3600539.3240020443,-149.98392443183445,-4617.720358551854,6455.266609329389,0.9950519598854262,-4.8229157038383974e-05,0.0004550506439632041,0.0993548576116542
1.46,-1.2675276747301968e-05,0.0005963439442839613,-0.006811267418315151,-40.33820395503755,43.81422818429889,4.659890307079692,-1656476.062238619,5090523.1712656915,3600571.6007306413,-149.73040677530713,-4617.720366408121,6455.424829569842,0.9950536533405054,-4.836501476497577e-05,0.0004565389756416825,0.09933788907915397
1.465,-1.6140919689758382e-05,0.0005722112410333171,-0.006816158634338402,-40.32077264479082,43.782120130470375,4.660728039689151,-1656476.810257138,5090500.082663818,3600603.878250072,-149.47700083460174,-4617.720382936162,6455.5829425852025,0.995055344055287,-4.855241910308553e-05,0.0004580184897202205,0.09932094506568268
1.47,-2.2003845034078308e-05,0.000566741212189658,-0.006794513058751288,-40.30965892086312,43.756970444913385,4.659320500833546,-1656477.55700898,5090476.9940619515,3600636.1565598003,-149.22373605886006,-4617.720363677514,6455.740948855297,0.995057035720924,-4.874245808676449e-05,0.00045943710910550977,0.09930398886250055
1.475,-3.088981548964504e-06,0.0005983369440534349,-0.006824687476948645,-40.28856876090349,43.721951447954254,4.653575345794102,-1656478.3024947422,5090453.90546024,3600668.4356593355,-148.97056875242743,-4617.720320600265,6455.898865198361,0.9950587217283563,-4.8945699067869374e-05,0.00046084066798812696,0.09928708648422926
1.48,-1.2566554509352717e-05,0.0005931154550377476,-0.006801532352914305,-40.28000355543065,43.706295938629815,4.649798827244691,-1656479.0467150533,5090430.816858768,3600700.715548117,-148.71755574035188,-4617.7202684564845,6456.056647492583,0.9950604149010275,-4.910976391937179e-05,0.00046232751706955173,0.0992701089880189
1.485,-2.0182068742375295e-07,0.0006031396377600343,-0.006815501306708341,-40.26545771193678,43.67384448086009,4.637444911758895,-1656479.7896704646,5090407.728257551,3600732.99622566,-148.46460875619883,-4617.720218436212,6456.214369752303,0.99506210204115,-4.929608304314391e-05,0.0004637990275168602,0.09925318907625216
1.49,-3.0261398186849065e-06,0.0005838285706167681,-0.006802984959850684,-40.24576380886547,43.64115329156525,4.643942334229077,-1656480.5313614206,5090384.6396565605,3600765.2776914462,-148.21177360781022,-4617.720177890817,6456.371944584972,0.9950637923468117,-4.945414648467928e-05,0.0004652985409162062,0.09923623436999378
1.495,-9.163384583987408e-06,0.0005801573318602182,-0.006801793845052059,-40.23200369768723,43.619134663002995,4.63645556286148,-1656481.2717885997,5090361.551055909,3600797.5599448774,-147.95909807140072,-4617.720082494396,6456.529427959775,0.9950654792788529,-4.9614430402481263e-05,0.0004667493156809037,0.0992193107768414
1.5,7.765277513528368e-06,0.0005919978287796701,-0.00677206570262274,-40.224551597616085,43.59256482517837,4.640452136381654,-1656482.010952641,5090338.462455703,3600829.8429854955,-147.70651844967637,-4617.71999978815,6456.686819260713,0.9950671656290798,-4.978906967251527e-05,0.00046818943531699744,0.0992023901254942
1.5050000000000001,6.8965549123677394e-06,0.0005942803177247629,-0.0068006232718533025,-40.20778640781281,43.562761619551296,4.638088674760866,-1656482.7488540104,5090315.373856051,3600862.1268128613,-147.4540292966499,-4617.719861160298,6456.844126952098,0.9950688443061897,-4.9924497756560556e-05,0.00046966321215126617,0.09918554337783213
1.51,-3.0041927689298257e-05,0.0005855658665369623,-0.006795988483935721,-40.19464919607082,43.53420001812812,4.628944730758121,-1656483.4854932586,5090292.28525714,3600894.4114264976,-147.20167001222748,-4617.719703202544,6457.001327685151,0.9950705297731455,-5.006268642897477e-05,0.00047114244795729064,0.09916862556026879
1.5150000000000001,-5.815282776086476e-06,0.0005861513002889571,-0.006809628019652732,-40.1672040418075,43.50428890741102,4.629331792963186,-1656484.2208709673,5090269.196659012,3600926.6968258284,-146.94941338697356,-4617.719548096313,6457.158404606024,0.9950722138070791,-5.0290600115960365e-05,0.00047259084762599825,0.09915171928829505
1.52,4.253896600687226e-06,0.0005853626667121268,-0.006781666341439887,-40.16559519573805,43.48530370554869,4.62561249359294,-1656484.9549878463,5090246.108061681,3600958.9830103163,-146.69733829808504,-4617.719384443123,6457.315390517646,0.9950739009343744,-5.045840686703705e-05,0.00047404670709803534,0.09913477902792547
1.5250000000000001,7.357429621835941e-06,0.0005969915136533339,-0.006784166607845521,-40.134782370639996,43.45680576369041,4.62735655215341,-1656485.687844452,5090223.019465217,3600991.2699795356,-146.44530396531812,-4617.719200771299,6457.472297291049,0.9950755808445938,-5.0600936069047236e-05,0.00047550310360244314,0.09911790828673675
1.53,-1.3423544441557169e-05,0.0005933433979459958,-0.006775652385210638,-40.13812725357445,43.4246225191683,4.619296923160246,-1656486.4194413756,5090199.930869683,3601023.5577330925,-146.1934655026711,-4617.719013281788,6457.629125325449,0.9950772610726273,-5.073862917125995e-05,0.00047698919764610487,0.09910103129178457
1.5350000000000001,5.201852212290024e-06,0.0005603053623818749,-0.006742285057257492,-40.118618081637436,43.402983133108,4.614651344810889,-1656487.1497791982,5090176.842275193,3601055.846270417,-145.94166351350358,-4617.718782319893,6457.7858043923925,0.99507893890487,-5.092710496261261e-05,0.0004784610686993069,0.09908417547415858
1.54,1.2242713539706242e-05,0.0005744333638601758,-0.00678730266246409,-40.09854604616972,43.37143530548218,4.610432819007365,-1656487.8788583225,5090153.753681824,3601088.135590941,-145.68998616578148,-4617.718565406074,6457.942405485329,0.9950806082273759,-5.106102261076415e-05,0.0004798553689349027,0.09906740261777604
1.545,3.6226770595330712e-06,0.0005616665510683374,-0.006761434834666044,-40.0884290423144,43.347100749261564,4.619811542577833,-1656488.6066794232,5090130.665089563,3601120.4256941797,-145.43845418772452,-4617.718339166818,6458.098889941384,0.995082288396661,-5.118097774865557e-05,0.00048128655333604104,0.09905051773224413
1.55,-6.008934234635447e-06,0.0005676291720986395,-0.006772123108285492,-40.08157024586222,43.311627902007956,4.609697051410792,-1656489.3332431277,5090107.576498599,3601152.7165796976,-145.18702750947745,-4617.718046313367,6458.255317043673,0.9950839618872265,-5.131918446270029e-05,0.0004826838462871037,0.09903369718165062
1.555,3.6424165276793733e-06,0.0005781110456720443,-0.006743000092513214,-40.046963744910386,43.28567749050783,4.609448855320337,-1656490.0585499122,5090084.487909155,3601185.008246951,-144.93568629089063,-4617.717731343359,6458.411584314489,0.9950856377288496,-5.1482840965419995e-05,0.00048409358636398905,0.09901685002405133
1.56,-3.936546409908494e-06,0.0005702018220699634,-0.006755631997293762,-40.03213894098329,43.25090412910412,4.601502033893561,-1656490.7826005048,5090061.399321241,3601217.300695363,-144.68455082117575,-4617.717433992656,6458.567780641039,0.9950873060638121,-5.1625047111625556e-05,0.00048553179507055636,0.0990000752746963
1.565,3.08236802628667e-05,0.0005834625133457774,-0.006743640383791263,-40.02263138522335,43.23409201294186,4.601883854533938,-1656491.5053957272,5090038.310734847,3601249.593924396,-144.4335380992331,-4617.717123823993,6458.723832504683,0.9950889772484359,-5.178416536620525e-05,0.0004869484502928108,0.09898326908255121
1.57,-7.689555787991268e-06,0.0005740569623534468,-0.006735052586713132,-40.00073373659205,43.19986065800902,4.600881333665159,-1656492.2269360796,5090015.222150041,3601281.887933557,-144.18260290585476,-4617.716798535625,6458.879831862587,0.9950906451685844,-5.1860076678094804e-05,0.0004884066975493116,0.0989664926497892
1.575,3.841765407961537e-07,0.0005641133159939065,-0.006763381674802604,-39.985134011168384,43.16490467576295,4.5897793855208,-1656492.9472221623,5089992.1335669225,3601314.182722422,-143.93183017717897,-4617.716448720635,6459.035714143223,0.995092310685903,-5.2029460805600505e-05,0.0004898320185403122,0.0989497376010624
1.58,1.2114031802377739e-05,0.0005732834250027008,-0.0067413358697569845,-39.97236571177734,43.1486391198051,4.593231348108474,-1656493.6662546876,5089969.044985552,3601346.478290315,-143.6811799133592,-4617.716099668706,6459.1914429900025,0.9950939829390202,-5.2176334534030506e-05,0.000491234595825156,0.09893291204022633
1.585,-1.5147030470520623e-06,0.0005863706773902018,-0.006745695626412296,-39.96405435249465,43.10887561777959,4.5867129692118285,-1656494.3840341994,5089945.956405974,3601378.7746367543,-143.4306247812411,-4617.715731311031,6459.347132782216,0.9950956494441869,-5.229626846632359e-05,0.0004926628898172844,0.09891614127951619
1.59,-7.4070724907724065e-06,0.0005560195049612669,-0.00675062238752446,-39.94708908353547,43.08320328586282,4.576348481543578,-1656495.100561196,5089922.867828347,3601411.071761227,-143.1801738425164,-4617.715319675791,6459.50265649802,0.9950973167246621,-5.245334884152329e-05,0.0004941203705134844,0.09889935965962202
1.595,-1.5392072902307066e-05,0.00056165946114577,-0.006733409063857739,-39.921836011942105,43.056854882017056,4.571060758827497,-1656495.8158362203,5089899.779252723,3601443.369663038,-142.92983588379877,-4617.714930042411,6459.658067684995,0.9950989849747455,-5.261758971157e-05,0.000495500887617454,0.09888256576612021
1.6,-3.481018613129066e-06,0.0005735644371411144,-0.006733906279281912,-39.91090315754369,43.02833927395519,4.574765163196692,-1656496.5298599496,5089876.6906790035,3601475.6683416683,-142.67965584088662,-4617.714557800902,6459.81338450974,0.9951006486769041,-5.280306814129553e-05,0.0004968934636873737,0.09886581467588529
1.605,-5.652142068540777e-06,0.000594246615983319,-0.006724761164968707,-39.88710391092042,42.99683924456261,4.5718188465447875,-1656497.2426330512,5089853.602107275,3601507.9677966586,-142.42958480739853,-4617.7141332666915,6459.968611647111,0.9951023122047357,-5.2961857916879034e-05,0.0004983186001633901,0.09884906230411741
1.61,-2.6799223213003116e-05,0.0005894633060109715,-0.0067238031391036925,-39.87990724881998,42.970809790186316,4.569183426256713,-1656497.9541562065,5089830.513537687,3601540.26802751,-142.17967733998165,-4617.713702019843,6460.123728831944,0.9951039731627891,-5.313114854426605e-05,0.0004997946533843386,0.09883233265493946
1.615,-2.0957601421588932e-05,0.0005688253486711155,-0.006712949983378878,-39.860638816924364,42.94078967805431,4.566318325295052,-1656498.6644300236,5089807.424970328,3601572.5690336963,-141.92984951692964,-4617.7132415057185,6460.27874567003,0.9951056336039035,-5.33518649564644e-05,0.0005012535818249086,0.09881560538801164
1.62,5.277950979913811e-06,0.0005562166769106834,-0.006719237116895174,-39.84626371907072,42.90547684398314,4.562700445696133,-1656499.3734550534,5089784.336405304,3601604.8708146983,-141.68016235662543,-4617.712768103116,6460.433655088956,0.9951072911076926,-5.355293679551427e-05,0.000502662612310063,0.09879890508852326
1.625,-4.505541564772428e-07,0.0005673051747948377,-0.006709857888901596,-39.82897798808943,42.87948934741904,4.561724708319934,-1656500.081231965,5089761.247842727,3601637.1733699096,-141.4306023278986,-4617.712262589232,6460.588429470851,0.9951089499012415,-5.3685634239029e-05,0.0005040467544674085,0.09878218908877476
1.6300000000000001,1.2892982776138533e-05,0.0005658977436136652,-0.006711927056433357,-39.8194586382734,42.840963061216954,4.556208279148294,-1656500.7877613942,5089738.159282716,3601669.4766987744,-141.1811692804904,-4617.711741961528,6460.74311647571,0.99511060608143,-5.38353094304466e-05,0.0005054570687135721,0.09876549640011097
1.635,-1.081414192483958e-05,0.0005692560562342735,-0.006700363236665153,-39.78968801699364,42.81829376591473,4.549621790501397,-1656501.4930439293,5089715.070725413,3601701.780800681,-140.93184482908913,-4617.711179353981,6460.897646124354,0.9951122624940022,-5.3951443969388257e-05,0.0005068671758663438,0.09874879851915046
1.6400000000000001,2.9418342667167495e-06,0.0005762938721360668,-0.006704528114338842,-39.7816668814337,42.787844588011914,4.547146857988519,-1656502.1970802671,5089691.982170822,3601734.085675037,-140.68269029704337,-4617.710656840266,6461.0520963151575,0.9951139157626299,-5.412737103933723e-05,0.0005082797865553114,0.09873212940807004
1.645,-9.995368961007947e-06,0.0005700133883109259,-0.006707631573248896,-39.763897477863196,42.755265246076235,4.545475480662853,-1656502.8998710606,5089668.89361894,3601766.391321351,-140.43362712607976,-4617.710095897077,6461.20642924241,0.9951155697707577,-5.427081862432644e-05,0.000509713300500348,0.09871544988931498
1.6500000000000001,-1.765859192644354e-05,0.0005697666749404283,-0.0066866631446101405,-39.743796489563906,42.72909078712479,4.540838595252377,-1656503.6014168884,5089645.80506993,3601798.69773904,-140.18470393000848,-4617.709508332314,6461.3606464176255,0.9951172242692892,-5.444490522757194e-05,0.0005111279966073118,0.0986987626391982
1.655,-5.325900277902665e-06,0.0005594406809998734,-0.0066901005519416435,-39.72946720239706,42.704132549813295,4.533664352495599,-1656504.301718438,5089622.716523846,3601831.0049275747,-139.93591594821578,-4617.708925358241,6461.514767456448,0.995118873312221,-5.463796865873276e-05,0.0005125401907756429,0.09868212753615024
1.6600000000000001,1.5590080075663628e-06,0.0005866735356331084,-0.0066903599483865836,-39.7140918581561,42.67011375568914,4.54217638366986,-1656505.0007763074,5089599.6279806625,3601863.312886457,-139.68723180741839,-4617.708347974742,6461.66878549137,0.995120522937886,-5.479780776584675e-05,0.000513929737892107,0.09866548383935074
1.665,-1.0190628873668329e-05,0.0005668055912584593,-0.0066883201137771,-39.696932703336884,42.63628793139566,4.5269056534027925,-1656505.6985911182,5089576.539440554,3601895.621615192,-139.43869250500794,-4617.707695629278,6461.822708414487,0.9951221723130648,-5.494723626391784e-05,0.0005153887330165826,0.09864883945684394
1.67,-4.8854731491026426e-06,0.0005721533288858574,-0.006686213356787794,-39.67499002187389,42.607917000718054,4.518901334844256,-1656506.3951635372,5089553.450903649,3601927.931113143,-139.19027513928532,-4617.707066083277,6461.976471953126,0.9951238209287846,-5.512099305454099e-05,0.0005167954029760391,0.09863220013912279
1.675,-1.1966814443726028e-05,0.0005555896696485828,-0.0066707203543411794,-39.67006389962825,42.57912954449053,4.522239014233113,-1656507.0904942271,5089530.362369851,3601960.241379629,-138.94200080485805,-4617.706453054436,6462.130122453944,0.9951254687386893,-5.528286753847059e-05,0.0005182166853810268,0.09861556602725324
1.68,-1.3365884016854155e-05,0.0005715220457878647,-0.006658560099486924,-39.64049415651445,42.540285251726324,4.517223545118831,-1656507.7845837502,5089507.273839278,3601992.5524141253,-138.69380838467166,-4617.705776144682,6462.28367614671,0.9951271124700642,-5.5458255406158215e-05,0.0005195950166576649,0.09859897044286405
1.685,-1.6950433202570375e-05,0.0005833664752203564,-0.0066792728805902535,-39.6282003867521,42.52039447148768,4.50381282870823,-1656508.4774328105,5089484.1853121,3602024.8642160376,-138.44581571703418,-4617.705095390588,6462.437088734989,0.9951287529048446,-5.564103538219375e-05,0.0005210126414565975,0.09858240508301361
1.69,-7.044158775021287e-06,0.0005600970717833791,-0.006661313727304213,-39.60480603769667,42.488832655747245,4.509186284269862,-1656509.1690421014,5089461.09678823,3602057.176784759,-138.19790065353303,-4617.70445225623,6462.59039976269,0.9951303981498006,-5.58356791724474e-05,0.0005224588466254426,0.09856578816886637
1.695,-4.355205943530027e-06,0.0005869974350311844,-0.0066396152920509995,-39.59413568698372,42.457828812497134,4.508953223823539,-1656509.859412248,5089438.008267678,3602089.4901198163,-137.95015799438002,-4617.703768497723,6462.743623342394,0.9951320387223761,-5.599992048500433e-05,0.0005238496049774396,0.09854921589666582
1.7,3.4887964521809315e-06,0.0005683905871877116,-0.0066279293642056486,-39.5737739606605,42.425741903111756,4.505515738243867,-1656510.548543949,5089414.919750653,3602121.804220714,-137.7025223585034,-4617.703041509407,6462.896735719483,0.9951336736370576,-5.616407123165507e-05,0.0005253079522401109,0.09853269757175334
1.705,5.0610548360002945e-06,0.0005672754837913731,-0.006647978804393289,-39.56533546847942,42.401267222159085,4.497511344865101,-1656511.2364378425,5089391.831237297,3602154.119086882,-137.45503507842628,-4617.70230115152,6463.049731369454,0.9951353054228799,-5.630410858139195e-05,0.000526721942472695,0.09851620828449653
1.71,-8.211230879926722e-06,0.0005638155868133089,-0.0066169278753059925,-39.544379215029394,42.365008736084285,4.496177220308922,-1656511.923094488,5089368.742727648,3602186.434717757,-137.20762315565804,-4617.701558619387,6463.202618779482,0.9951369418723223,-5.643998615273983e-05,0.0005281335427724373,0.09849966908823284
1.715,1.7557536296893418e-05,0.0005653669356009077,-0.006631701816054631,-39.51612407916347,42.33584587997091,4.492394529553329,-1656512.6085144768,5089345.654221786,3602218.751112751,-136.96037237408106,-4617.700786030048,6463.355378858275,0.9951385704026064,-5.66079900686402e-05,0.0005295332713395853,0.09848320713251976
1.72,9.361137073953053e-06,0.0005483188769504595,-0.0066401682762366075,-39.50933279687201,42.302607903119394,4.49460961168517,-1656513.2926986571,5089322.56571976,3602251.068271297,-136.71329971679125,-4617.700024257197,6463.508039461092,0.9951402022970359,-5.671228674632708e-05,0.0005309432016642643,0.09846670835997152
1.725,-9.495372304296655e-06,0.000575965346163209,-0.006636055860121352,-39.48095794067533,42.276350568254074,4.4926849729413085,-1656513.9756477156,5089299.477221708,3602283.3861928545,-136.4663237339532,-4617.699196462043,6463.660583444525,0.9951418360212778,-5.683278939672457e-05,0.0005323086999389414,0.09845018851014144
1.73,6.6924524282115445e-06,0.000559788322009801,-0.006613084775558159,-39.46515980488036,42.23820969718736,4.491508673688394,-1656514.6573623342,5089276.388727769,3602315.704876926,-136.21952363460645,-4617.698379105748,6463.813045061925,0.9951434684178464,-5.7007003312355596e-05,0.0005337383379783351,0.09843367888526218
1.735,5.078714202294309e-06,0.0005636838721454681,-0.006615479875228898,-39.45005020025663,42.21127183129015,4.481614501032923,-1656515.3378433057,5089253.300238031,3602348.024322958,-135.9728650165795,-4617.697516174019,6463.965367918637,0.9951450949105308,-5.713693263072537e-05,0.0005351317165620858,0.09841722636270313
1.74,-2.6121682674560056e-06,0.0005445234840723752,-0.006637236865731026,-39.42877887859242,42.182446134277946,4.479513090940586,-1656516.0170912524,5089230.211752575,3602380.3445303096,-135.72631362662432,-4617.696666404103,6464.117572583402,0.9951467217130058,-5.727183836989867e-05,0.0005365343892012584,0.09840076785596301
1.745,1.140572420531714e-06,0.0005689568039771026,-0.006637275390233491,-39.417896364887255,42.14635685379745,4.477475741455558,-1656516.6951068128,5089207.123271391,3602412.6654984364,-135.4799105202001,-4617.695807306352,6464.26967815916,0.9951483536173336,-5.742119367561134e-05,0.0005378874981117126,0.09838425520659497
1.75,-3.873313689046765e-06,0.000538357020756163,-0.006617990626503675,-39.39919236635916,42.1214609368838,4.465872655148439,-1656517.371890644,5089184.03479462,3602444.987226749,-135.23362202198052,-4617.694900723696,6464.421646896818,0.9951499852228942,-5.7567222317872214e-05,0.0005393023168391777,0.09836774242554999
1.7550000000000001,1.4653522177100145e-05,0.0005527392497026182,-0.006603911067339473,-39.37638981645346,42.09240500138217,4.462850257012805,-1656518.0474433268,5089160.946322303,3602477.3097146256,-134.98745106756792,-4617.694026077628,6464.573503876989,0.9951516118513815,-5.7718173786189377e-05,0.0005406397767467846,0.09835127760655578
1.76,-3.498539745545419e-05,0.0005811837669599101,-0.006597013095177295,-39.35844781110545,42.05016364405625,4.464247769219764,-1656518.7217655405,5089137.857854367,3602509.632961534,-134.7414344717374,-4617.693148334504,6464.7252594561205,0.995153234727564,-5.782654995871169e-05,0.0005420175751280638,0.09833484776163717
1.7650000000000001,-1.083778267012088e-05,0.0005659938998727951,-0.006599882749761278,-39.336835436479625,42.02941656814649,4.45666434047916,-1656519.3948580755,5089114.769390972,3602541.956966854,-134.4955795202116,-4617.692209721467,6464.876868464542,0.9951548555892757,-5.806540531511499e-05,0.0005434539379022609,0.09831843511424418
1.77,1.6301443910718956e-05,0.0005527047114658634,-0.006586551449128768,-39.32750534921699,41.98097736131747,4.456128580378978,-1656520.0667216568,5089091.680932191,3602574.2817300153,-134.2498529224286,-4617.691302672705,6465.028396101661,0.9951564769076259,-5.824045440423912e-05,0.0005448584448251603,0.09830201526991439
1.7750000000000001,-2.5650387783822292e-05,0.0005723455700970359,-0.006583387621638755,-39.31070989406818,41.95754778338317,4.451500384288723,-1656520.7373569335,5089068.592478158,3602606.6072503547,-134.0042577853818,-4617.690310509998,6465.179739584344,0.9951580946994726,-5.8344699990469996e-05,0.0005462365610868888,0.09828562853047723
1.78,1.976805460592086e-05,0.0005632329321592133,-0.006581901805300822,-39.29173696308989,41.93143356182232,4.446777564199703,-1656521.4067645227,5089045.504029077,3602638.9335271916,-133.75877791555408,-4617.689322212004,6465.330995150778,0.9951597114093109,-5.855813903785413e-05,0.0005476532339042478,0.09826924968990436
1.7850000000000001,-3.0973662753326865e-06,0.0005469279817764975,-0.00658348526092182,-39.26881342029156,41.89517909825631,4.447331053805701,-1656522.0749450368,5089022.41558493,3602671.2605600627,-133.51342773357698,-4617.6883364175155,6465.482153362708,0.9951613275017318,-5.865634079470883e-05,0.0005490583935549905,0.09825287445823148
1.79,1.143457354076461e-05,0.0005623784283640047,-0.006578072831352352,-39.25121373311521,41.86200285630806,4.437197761466065,-1656522.7418992308,5088999.327145796,3602703.5883484236,-133.2682498008196,-4617.687316974838,6465.633190955184,0.9951629437306967,-5.8807426644970554e-05,0.0005504173712002923,0.09823649529405251
1.795,1.3138145728211167e-05,0.0005357729779071768,-0.006590469663662854,-39.236424244557384,41.83136226117187,4.4372252802783985,-1656523.4076278575,5088976.238711748,3602735.9168916163,-133.02320096424066,-4617.686302255027,6465.784086225822,0.9951645583400205,-5.892614540575932e-05,0.0005518183576881454,0.09822012954645055
1.8,-3.178201071753365e-06,0.0005753276010493456,-0.0065734203663973196,-39.219912724853444,41.79966406205093,4.432971793779356,-1656524.072131553,5088953.150282862,3602768.246189021,-132.77827715601643,-4617.685252303983,6465.934875636509,0.9951661757588237,-5.903410993883329e-05,0.0005531535685085177,0.09820373293139902
1.805,2.440656322106569e-06,0.0005520069049653151,-0.006583233320105097,-39.19976786099003,41.77484168840856,4.4273524295505,-1656524.735410952,5088930.061859269,3602800.576240071,-132.5334824791324,-4617.684185084937,6466.085544295931,0.9951677886633811,-5.919235559884317e-05,0.0005545831844364754,0.09818737872350362
1.81,2.7923909739265267e-05,0.0005677465372335296,-0.00657195595807472,-39.182964150256346,41.73274314636127,4.424212372110652,-1656525.3974667063,5088906.973440982,3602832.90704423,-132.2888192783432,-4617.683129208403,6466.236119259002,0.9951694037387384,-5.933091108821288e-05,0.0005559561579995263,0.09817100007067908
1.815,-1.8416838421790932e-05,0.0005340070994315736,-0.00656454525042224,-39.159799060240864,41.70966215363163,4.418474825780171,-1656526.0582995208,5088883.885028089,3602865.238600864,-132.0443064144742,-4617.682028268122,6466.386534524065,0.9951710157571733,-5.94099134404541e-05,0.0005573745463762228,0.09815464941057653
1.82,3.619106877245517e-06,0.0005425711864660807,-0.006546711199256137,-39.12943244132164,41.66999971294488,4.419111015034439,-1656526.7179101252,5088860.796620646,3602897.5709093637,-131.7999353458822,-4617.6809492747925,6466.536865273043,0.9951726257270229,-5.959591866703714e-05,0.000558697623026054,0.0981383172307089
