t_s,gyro_x_radps,gyro_y_radps,gyro_z_radps,accel_x_mps2,accel_y_mps2,accel_z_mps2,ins_pos_ecef_x_m,ins_pos_ecef_y_m,ins_pos_ecef_z_m,ins_vel_ecef_x_mps,ins_vel_ecef_y_mps,ins_vel_ecef_z_mps,ins_quat_w,ins_quat_x,ins_quat_y,ins_quat_z
0.0,-1.9523728844747036e-05,0.0006685709766844199,-0.007278091386660759,-41.760493775609405,48.222463197895365,5.138994230873335,-1653639.850072476,5089380.142985015,3585590.067023642,-226.82286500164605,-4617.160284474699,6406.276788851849,0.9945218953682734,0.0,0.0,0.10452846326765354
0.005,1.0259114222495368e-05,0.0006629656866413174,-0.007328521601923373,-41.76318513769684,48.231278313756484,5.14709387385511,-1653640.9835153278,5089357.057174904,3585622.0988423387,-226.55427565670692,-4617.16375982873,6406.450689792541,0.9945237971215269,-2.2325368147052543e-07,1.6571692237754191e-06,0.10451036769710421
0.01,1.2932247696337988e-05,0.0006517516584821853,-0.007323877565739615,-41.76657338707575,48.22153973269221,5.144380788174906,-1653642.1156152014,5089333.971347444,3585654.1315307003,-226.28567379729284,-4617.167224385016,6406.624654870555,0.9945257117167219,-3.7099367904892115e-07,3.3081834727020392e-06,0.10449214670618155
0.015,2.85928734172185e-07,0.0006486776513383449,-0.007348676610349635,-41.77081622053357,48.222119060159166,5.141246732472895,-1653643.2463720771,5089310.88550269,3585686.1650887826,-226.0170765206861,-4617.170677056305,6406.798578092322,0.9945276247625406,-5.091579434804909e-07,4.9320144301160854e-06,0.10447393722644568
0.02,1.4991261534962264e-05,0.0006641371532630243,-0.007318354383469905,-41.77808087521067,48.21561815552643,5.139480813190764,-1653644.3757859198,5089287.799640644,3585718.199516476,-225.7484605401899,-4617.17414126353,6406.972499370776,0.994529543948346,-6.779624133372415e-07,6.544899364899681e-06,0.10445566605311304
0.025,4.962113054921552e-06,0.0006577523002848378,-0.007323153775859908,-41.77267312085191,48.22088036486619,5.14707473085778,-1653645.503856639,5089264.7137613185,3585750.2348137028,-225.4798270854225,-4617.177589272841,6407.146391238557,0.9945314548786328,-8.142412484402719e-07,8.200061815685257e-06,0.10443747023499775
0.03,-9.922751266343073e-06,0.0006498726717557493,-0.007323921764735983,-41.78211268409063,48.21406161004316,5.146148716952709,-1653646.6305842646,5089241.627864752,3585782.270980527,-225.21122324378595,-4617.181037104286,6407.320338461141,0.9945333667262775,-9.737888959961147e-07,9.83673086388936e-06,0.1044192624489668
0.035,-1.0123817181234138e-05,0.0006527235358648232,-0.00730300439647008,-41.79088814921771,48.21143695091055,5.136214986218862,-1653647.7559688075,5089218.541951009,3585814.3080170117,-224.94259384473628,-4617.184460176938,6407.494255443167,0.994535278438523,-1.168288335176838e-06,1.1449922856792119e-05,0.10440105271856283
0.04,-7.837198148116277e-06,0.0006475700489005034,-0.0073269379737708855,-41.796024635261745,48.198583221916614,5.138832173535804,-1653648.8800100987,5089195.456020096,3585846.345922987,-224.67392262183466,-4617.187904957972,6407.668134567006,0.9945371843560946,-1.364031176108484e-06,1.3070150640524003e-05,0.1043828949606306
0.045,5.917907050002123e-06,0.0006391311037498165,-0.007308466034072743,-41.79138655395935,48.199553807404584,5.139877102924214,-1653650.0027080567,5089172.370072069,3585878.3846982545,-224.40526065707894,-4617.191306130164,6407.841972560903,0.9945390961842508,-1.5527446397610104e-06,1.4678161711983164e-05,0.10436467766037516
0.05,1.484832122838144e-05,0.0006612866486942602,-0.00731886892493266,-41.79853260222993,48.20883363196553,5.1402296001947985,-1653651.1240627693,5089149.284106999,3585910.42434276,-224.13662433149688,-4617.19472161149,6408.015829519101,0.9945410028577993,-1.7050556308493146e-06,1.6268779565792227e-05,0.10434650625211442
0.055,-2.6398106371016766e-06,0.000646789160307732,-0.007311899486750605,-41.80749721622204,48.196058793949014,5.132916744935274,-1653652.2440741921,5089126.198124823,3585942.464856651,-223.86794482139086,-4617.198148738966,6408.189727043095,0.9945429119091325,-1.840942521059409e-06,1.7916813508289242e-05,0.10432830894298219
0.06,2.2098189502824265e-05,0.000640413188169542,-0.007326607211670925,-41.80924160931336,48.185924087189804,5.1297492552747626,-1653653.3627421658,5089103.112125542,3585974.5062398505,-223.59924459883638,-4617.20156366731,6408.363552737946,0.9945448188079578,-2.0165295963252525e-06,1.9524240272975708e-05,0.1043101289280399
0.065,3.6060148476277285e-06,0.0006699467067645492,-0.007328113350442956,-41.80800698559105,48.17993839235974,5.137640303004448,-1653654.4800666682,5089080.026109206,3586006.5484920703,-223.33055640878894,-4617.204970994848,6408.537335084389,0.9945467292070587,-2.1289470679520767e-06,2.1122265041750796e-05,0.10429191230799756
0.07,-1.7444033082196377e-05,0.0006638746620013273,-0.0073318768366816825,-41.806203651458745,48.18575801836794,5.132924235908266,-1653655.5960478096,5089056.940075921,3586038.591613219,-223.06190015608811,-4617.208342728721,6408.711124413126,0.9945486396607919,-2.2950432157666154e-06,2.2788899495518806e-05,0.1042736919086845
0.075,-2.840454000268938e-06,0.0006377206353088686,-0.007326832400172045,-41.823315284045194,48.18245583397566,5.1454880939700365,-1653656.7106856615,5089033.854025673,3586070.6356033646,-222.7932406159221,-4617.211756664489,6408.884933842644,0.9945505507590915,-2.5118949322343527e-06,2.443494914479908e-05,0.10425546211787456
0.08,1.3771974284525897e-06,0.000643885985658803,-0.007335691722258257,-41.829421288583745,48.17738877840659,5.127754985392984,-1653657.8239800932,5089010.767958569,3586102.680462595,-222.524532026349,-4617.215084881329,6409.058758429064,0.9945524602077537,-2.6856195952979017e-06,2.601977632057928e-05,0.10423724483342497
0.085,2.110217331590883e-06,0.0006344489782946598,-0.0073176871682554745,-41.82533154109525,48.16794087290566,5.135756186584912,-1653658.9359308933,5088987.681874693,3586134.7261907808,-222.25578801813654,-4617.218465498137,6409.232515754466,0.9945543716280775,-2.8504647925866667e-06,2.7621031929874772e-05,0.10421900548572509
0.09,-4.515499142482459e-06,0.000669459102379611,-0.007302033209943579,-41.831955099389965,48.16183172115331,5.144544203254711,-1653660.0465381013,5088964.595774009,3586166.7727877423,-221.98709519403823,-4617.221808105467,6409.4062687838095,0.9945562780218008,-3.011027386468686e-06,2.919901460232882e-05,0.1042008108690797
0.095,-1.4269369582764745e-05,0.0006529560724729078,-0.007297386730248135,-41.83143149188007,48.155975268562095,5.133211552170161,-1653661.1558018406,5088941.509656751,3586198.820253474,-221.71840051235114,-4617.22509510416,6409.580024027194,0.9945581800002415,-3.197183164721113e-06,3.0862320216970294e-05,0.10418265513943449
0.1,-3.959444104040419e-06,0.0006695871286709236,-0.007292984074280061,-41.82912039543616,48.1548835672776,5.140623463704842,-1653662.2637221161,5088918.42352296,3586230.868587865,-221.4497096983662,-4617.228421097991,6409.753732392376,0.9945600804357287,-3.403292238788953e-06,3.2482052339619304e-05,0.10416451092867829
0.105,9.1019878548518e-06,0.0006550019843805009,-0.007319665371571285,-41.83649407927982,48.152401169185545,5.133227928619114,-1653663.3702990054,5088895.337372591,3586262.917790864,-221.1810460266924,-4617.231726766481,6409.927467125315,0.9945619793899186,-3.588097268009642e-06,3.414582077116962e-05,0.10414637762877575
0.11,-1.7359640188376697e-05,0.0006515272698936448,-0.007311203522459677,-41.84510553628165,48.15374870715425,5.133347426319606,-1653664.475532495,5088872.251205656,3586294.967862464,-220.912349757871,-4617.235047305658,6410.1011728801,0.9945638849578181,-3.7366310897445356e-06,3.577672512902144e-05,0.10412817795234634
0.115,7.088779800823181e-07,0.0006453655110337009,-0.007309369928425761,-41.84557187393499,48.135000329297945,5.136269095354522,-1653665.5794224143,5088849.165022139,3586327.0188026093,-220.64361799031838,-4617.238359299357,6410.274885166648,0.9945657879876807,-3.95005406313956e-06,3.739210148722605e-05,0.10410999928283413
0.12,2.718576743198034e-06,0.0006495473865893526,-0.007309025944238682,-41.8519587040236,48.14876033229702,5.125823233457894,-1653666.681968778,5088826.078822184,3586359.0706111654,-220.37492750829108,-4617.241622674335,6410.448537291056,0.9945676902062575,-4.116947286989496e-06,3.899685994809479e-05,0.10409182513572177
0.125,1.7249396118490463e-05,0.0006658362114552616,-0.007306979662213089,-41.85118104943225,48.137778916961665,5.132391730462788,-1653667.7831715348,5088802.992605748,3586391.123288055,-220.10617521127705,-4617.244952068986,6410.622218633746,0.9945695920002381,-4.27993176991746e-06,4.061253927819262e-05,0.10407365180863017
0.13,-1.2487599088726043e-05,0.000657759559052564,-0.007297719361008814,-41.84927418828679,48.13049230721638,5.133255724784282,-1653668.8830306234,5088779.906372771,3586423.1768333083,-219.83746022407846,-4617.248238732289,6410.7958825835985,0.9945714929256395,-4.411024359617036e-06,4.227250022986007e-05,0.10405548353279301
0.135,3.3565543894792786e-06,0.000645534150465447,-0.0073262772795339316,-41.85540128950802,48.125366797064224,5.134529509421546,-1653669.9815462078,5088756.820123384,3586455.2312468374,-219.56877353602346,-4617.251515880642,6410.969529158038,0.9945733911084118,-4.613953838561806e-06,4.39046435053106e-05,0.10403733825030226
0.14,4.942185236238259e-06,0.0006507992915960975,-0.007301299308516696,-41.86324023767107,48.113838137779936,5.139433526742955,-1653671.078718331,5088733.733857668,3586487.2865285636,-219.30007575752225,-4617.2547702873535,6411.143161344452,0.9945752963854468,-4.774311269456759e-06,4.5510509730258765e-05,0.10401912192380751
0.145,-5.425255023992669e-06,0.0006528946545068734,-0.007307568898694721,-41.861230519782524,48.1107712995137,5.1367853537359025,-1653672.1745469593,5088710.647575819,3586519.342678372,-219.03137561367953,-4617.257969521575,6411.316761890569,0.9945771948313145,-4.93209247206679e-06,4.712988002607539e-05,0.10400096766820276
0.15,-1.7111014840275592e-06,0.0006269104503037478,-0.007306657007593316,-41.85943524539713,48.11712462276276,5.134277017541557,-1653673.2690321284,5088687.561277937,3586551.399696158,-218.762691989859,-4617.261182943166,6411.490352419397,0.9945790945726154,-5.116197260282748e-06,4.875176466961164e-05,0.10398279778985803
0.155,-5.924949361402731e-06,0.0006352178562834969,-0.007309722482435748,-41.86629367063345,48.112933673899505,5.129799850086761,-1653674.3621738756,5088664.4749639025,3586583.457581967,-218.49400687845986,-4617.264431069951,6411.6639713429695,0.9945809937456291,-5.2843121113503506e-06,5.03100064628883e-05,0.10396463014379596
0.16,2.1419768212060563e-05,0.0006619719186921297,-0.007317271837991915,-41.87737521738438,48.100859952531536,5.130213057077643,-1653675.4539721387,5088641.388633626,3586615.5163358026,-218.22529831870128,-4617.267679772271,6411.83756296235,0.9945828933798175,-5.465064069695616e-06,5.1887808941144586e-05,0.10394645484103343
0.165,1.6825569228034753e-05,0.0006510972045480623,-0.0072986475421296755,-41.866677486933575,48.09927757376198,5.123607288004472,-1653676.5444268046,5088618.302287218,3586647.5759574734,-217.95656809992573,-4617.27088307519,6412.011105370997,0.9945847946376288,-5.584778009544986e-06,5.353924009689552e-05,0.10392826072818603
0.17,-1.5894817415719182e-05,0.0006622477349390782,-0.007297698667114861,-41.873287850163685,48.09371233421954,5.125926736924738,-1653677.6335379386,5088595.215924667,3586679.6364468373,-217.68788550199272,-4617.274137456701,6412.184640191805,0.9945866907231907,-5.713087280502419e-06,5.516243826355609e-05,0.10391011288973867
0.17500000000000002,-1.426597880085195e-05,0.0006623211750331714,-0.007309620217604986,-41.87585747634472,48.08162004363879,5.128803704661887,-1653678.7213056318,5088572.129545916,3586711.6978038414,-217.4191917917288,-4617.277362950157,6412.3581613703855,0.9945885862264772,-5.925651203543789e-06,5.6804861900384065e-05,0.10389196738011906
0.18,1.2158736831811965e-06,0.0006479190805461028,-0.007317517004707346,-41.88228512312789,48.07700624612147,5.1256255764290115,-1653679.8077299055,5088549.043151132,3586743.760028363,-217.15051768325105,-4617.280550814718,6412.531647442663,0.9945904844918402,-6.134185831450228e-06,5.844789100632907e-05,0.10387379219274973
0.185,-1.948669864480276e-05,0.0006490561978480541,-0.007302105363802571,-41.87900510588808,48.06392852969257,5.131445001106181,-1653680.892810761,5088525.956740419,3586775.823120253,-216.88182449147394,-4617.283734044139,6412.705108519276,0.9945923844750557,-6.300486352833186e-06,6.00591299029643e-05,0.10385559733316187
0.19,2.4116546939809594e-06,0.0006216593951083016,-0.007330606277215529,-41.88893301678786,48.063450295040866,5.124856309220864,-1653681.976548279,5088502.870313889,3586807.887079384,-216.61318265245106,-4617.286877866576,6412.878543750015,0.9945942801215433,-6.518556350002173e-06,6.166782124762011e-05,0.10383744076245965
0.195,2.153186642968482e-05,0.0006479131456957524,-0.007318707116927545,-41.88801641857572,48.05956602766575,5.1308483465627,-1653683.0589424707,5088479.783871613,3586839.951905639,-216.3444941239872,-4617.29003272992,6413.051958208474,0.9945961828360053,-6.6750687618070525e-06,6.321407502120246e-05,0.10381921328671236
0.2,1.7018477375936814e-05,0.000670788856299483,-0.007312318744751915,-41.88721795035571,48.0516256676555,5.133102968064795,-1653684.1399932806,5088456.697413622,3586872.017598991,-216.07582978863755,-4617.2931636487065,6413.225382565281,0.9945980821222218,-6.790851176189316e-06,6.483057128564294e-05,0.1038010153595797
0.20500000000000002,2.0371900523524018e-05,0.0006392303522073428,-0.007308599843708648,-41.89469116686104,48.04564443066642,5.123448782090652,-1653685.2197008345,5088433.610940023,3586904.0841594217,-215.80719174780032,-4617.2962758015165,6413.398789831838,0.9945999794114768,-6.9237913780855355e-06,6.650277674549383e-05,0.10378283328244532
0.21,-8.262061167663992e-06,0.0006666909108798141,-0.007298639591467854,-41.8938195693776,48.039429160034786,5.129551432689424,-1653686.298065124,5088410.5244508255,3586936.1515867654,-215.53852415108796,-4617.2994035346865,6413.572147584378,0.9946018754062568,-7.040204595448681e-06,6.809738209791804e-05,0.10376466041740288
0.215,1.2403283631252102e-05,0.0006484304979237207,-0.0073196074782576,-41.89196176139158,48.03533856940047,5.126451486750675,-1653687.3750861469,5088387.437946063,3586968.2198808994,-215.2698849406629,-4617.302501417982,6413.745506048239,0.9946037684778061,-7.234938183636714e-06,6.975284042736955e-05,0.10374651228809466
0.22,-5.668293041374041e-06,0.0006428101195815623,-0.007293397869803926,-41.889888924521834,48.03012942255805,5.124895259582547,-1653688.4507640165,5088364.351425778,3587000.289041787,-215.00126284636664,-4617.305612608503,6413.91884894213,0.9946056666564926,-7.373554715885347e-06,7.13682535588615e-05,0.1037283119837439
0.225,-2.0566936807644143e-05,0.0006516797968512982,-0.00728797270383796,-41.892162720059424,48.01428575631908,5.1260529330334945,-1653689.5250988307,5088341.264889924,3587032.3590693497,-214.7326628659022,-4617.308728923135,6414.092176251072,0.9946075577047038,-7.555644319824972e-06,7.296500566377411e-05,0.10371017681840386
0.23,5.764559094826224e-06,0.0006377603262707095,-0.007291560848882917,-41.903565459315736,48.01845752895466,5.130108969456155,-1653690.598090709,5088318.178338585,3587064.429963412,-214.46408842359568,-4617.311806420767,6414.2654486717465,0.9946094470113759,-7.777078380361834e-06,7.457994961439952e-05,0.10369205511066601
0.23500000000000001,1.0504778170648672e-07,0.0006377593846449615,-0.007291736589246512,-41.904053103698104,47.9973874688447,5.117720554620237,-1653691.6697395945,5088295.091771918,3587096.501723903,-214.19546582107552,-4617.314860562696,6414.438747681047,0.9946113369183859,-7.929430874586315e-06,7.61671082952624e-05,0.10367392444157314
0.24,1.2448567496657936e-05,0.0006693555591900538,-0.007300951958717191,-41.89092978355515,48.000206458097715,5.1163436122212085,-1653692.7400454313,5088272.005189965,3587128.574350608,-213.92686892569594,-4617.317921022401,6414.611934255959,0.9946132265377943,-8.095855690830238e-06,7.775279774639288e-05,0.10365579330186007
0.245,-2.0752817415726066e-06,0.0006299049940640489,-0.007306552763288927,-41.903102725351935,48.000304166594674,5.128689833066519,-1653693.8090084265,5088248.918592595,3587160.647843313,-213.6583291267041,-4617.321026992833,6414.785147705373,0.9946151182057829,-8.239777542077512e-06,7.942025061102188e-05,0.10363763921002105
0.25,-3.707520910399241e-05,0.0006507986280019864,-0.00728038962152257,-41.9014264081012,47.98822523254555,5.121735130744841,-1653694.876628639,5088225.8319798615,3587192.7222021664,-213.3897558107115,-4617.324066005658,6414.958393788375,0.9946170109982047,-8.409593194083689e-06,8.098584496873453e-05,0.1036194711604392
0.255,-7.882103719046418e-06,0.0006487377030011833,-0.007296905388664657,-41.90143425624009,47.97822677881068,5.11627748137806,-1653695.9429060493,5088202.74535191,3587224.7974271034,-213.1212084268449,-4617.3271149297,6415.131580951148,0.9946188966749006,-8.671844822246303e-06,8.259432607379671e-05,0.10360136813855268
0.26,-3.696776105182525e-06,0.0006476532751536158,-0.007297954034448976,-41.9054996213691,47.96882830128693,5.127960103771987,-1653697.0078407642,5088179.658708699,3587256.8735178565,-212.8526775334424,-4617.330169135661,6415.304720344226,0.994620786297425,-8.860976035483145e-06,8.420524331993066e-05,0.10358322400877532
0.265,7.90698955722061e-06,0.0006590879793251143,-0.007283716757816863,-41.90636144643193,47.959034870211966,5.1214711028757405,-1653698.071432873,5088156.572050391,3587288.9504743046,-212.58416586444906,-4617.333154053645,6415.4778588954705,0.994622675858176,-9.039419610566938e-06,8.58145478527107e-05,0.10356507723588122
0.27,-8.832307768059994e-06,0.0006480603984315535,-0.007277665766454849,-41.901655534453084,47.95996904016672,5.121369278029631,-1653699.1336824505,5088133.4853771385,3587321.0282963193,-212.3156651849732,-4617.336147011009,6415.650946930492,0.9946245613974297,-9.191967297131222e-06,8.745529008086156e-05,0.10354696582735123
0.275,3.797759048398611e-06,0.0006397788226746581,-0.007317855840292822,-41.91364250608272,47.94808727486278,5.114109233305721,-1653700.194589586,5088110.398688874,3587353.106983813,-212.04718901584485,-4617.339158765832,6415.824050571982,0.9946264450401272,-9.383282266939904e-06,8.906427840321385e-05,0.10352886943431415
0.28,-2.410512585214119e-07,0.0006427586096025715,-0.007287041703399124,-41.91248867802386,47.9469306747521,5.113309814465181,-1653701.2541542507,5088087.311985592,3587385.1865366483,-211.77867685198945,-4617.342153891366,6415.997083552804,0.9946283387533972,-9.541057230769886e-06,9.065594200861219e-05,0.10351067306865447
0.28500000000000003,5.843647365608622e-06,0.0006559442349687663,-0.007313115677247046,-41.915335117853296,47.92930669012604,5.117126255538412,-1653702.3123763832,5088064.225267312,3587417.266954654,-211.51017623679977,-4617.345158522166,6416.170118699453,0.9946302241578618,-9.70963909502545e-06,9.225397061993359e-05,0.10349255329060869
0.29,-3.577558828910238e-06,0.000661182747825388,-0.0073038073436052136,-41.90323966546915,47.923663321216516,5.117171761367874,-1653703.3692560869,5088041.138534144,3587449.3482376975,-211.24170520725195,-4617.348108580477,6416.343098674952,0.9946321159716845,-9.866508441791953e-06,9.388635992363543e-05,0.10347436864119024
0.295,-1.187263675434714e-05,0.0006670582260963323,-0.007298376187659444,-41.902463662360105,47.92767212278358,5.113943868038424,-1653704.42479361,5088018.05178618,3587481.43038563,-210.97330396342886,-4617.351077084947,6416.516074313356,0.994634005041371,-1.0048157315573468e-05,9.552933827475312e-05,0.10345620710494896
0.3,-2.4698799838443225e-05,0.0006683600747384743,-0.007278071425046133,-41.91457489561931,47.90805851232599,5.119775459343,-1653705.4789891199,5087994.965023298,3587513.5133984806,-210.70490003535042,-4617.354075662173,6416.689065948632,0.9946358923706121,-1.0251950942081277e-05,9.718478116317375e-05,0.10343805904081917
0.305,-2.201675504134583e-06,0.0006471437356241697,-0.007284643928766624,-41.924743908034884,47.89680191579496,5.111067626636951,-1653706.5318425961,5087971.878245639,3587545.5972761256,-210.43649044308484,-4617.356988091904,6416.861992096247,0.9946377741155127,-1.0487969689032887e-05,9.884014491939579e-05,0.10341996143475768
0.31,6.629387411406954e-06,0.0006647528817013067,-0.007282437851217887,-41.921483675672704,47.89678271594874,5.116342629270466,-1653707.5833539471,5087948.791453431,3587577.682018225,-210.16804997502754,-4617.359894769225,6417.034847632119,0.994639657233287,-1.066256334993917e-05,0.00010044856866881952,0.10340184744599273
0.315,-5.646945412463813e-07,0.0006325231212229612,-0.007295424046912041,-41.91745859383624,47.889361342968854,5.1128847594473035,-1653708.6335231625,5087925.704646709,3587609.767624666,-209.8996361653415,-4617.362793908067,6417.207728690983,0.9946415394441329,-1.0819749185391095e-05,0.00010210306220156971,0.10338373890560887
0.32,1.047062187058575e-05,0.000661573910062105,-0.007279582472680708,-41.92444898797179,47.87421882834531,5.115786710147992,-1653709.6823503897,5087902.617825463,3587641.8540954413,-209.63125475013229,-4617.365704572375,6417.380581490752,0.9946434246865236,-1.09864970811006e-05,0.000103675553324707,0.1033655980418081
0.325,1.1564929452195763e-05,0.0006557323543300107,-0.007290018408357365,-41.9133637292539,47.86753173840841,5.120679997388919,-1653710.7298357233,5087879.530989798,3587673.9414303526,-209.3628786500723,-4617.368561407647,6417.553383098195,0.9946453054952531,-1.113330748527177e-05,0.0001053231344687249,0.10334749653156314
0.33,8.143130525509251e-06,0.0006587147245020127,-0.007270391450689934,-41.91664662433609,47.862181709094386,5.10775904701894,-1653711.7759793596,5087856.444139862,3587706.0296292827,-209.09457590391708,-4617.371413060529,6417.726188783628,0.994647188669272,-1.1275890238438925e-05,0.00010695647233196434,0.10332936903649823
0.335,-2.5258500439833912e-06,0.0006272552873570731,-0.007281463928920011,-41.913441676675305,47.85654923275293,5.103939818142363,-1653712.8207814416,5087833.357275572,3587738.1186921094,-208.82625693331423,-4617.374303226617,6417.8989419299705,0.9946490664401223,-1.1427746862533438e-05,0.00010859634279722217,0.1033112903125021
0.34,1.2678564597090754e-05,0.0006688586190684027,-0.007284112893822194,-41.917234421196724,47.84979330885052,5.109855050713254,-1653713.8642419914,5087810.270396791,3587770.208618645,-208.55796294406332,-4617.377208725846,6418.071672343878,0.9946509467473177,-1.159801093020086e-05,0.00011015522959509797,0.10329318402477619
0.34500000000000003,2.2787386437346905e-05,0.0006426262374303517,-0.0072832249852662284,-41.914326145135355,47.846675880073235,5.107686951342379,-1653714.9063610916,5087787.183503584,3587802.2994088177,-208.2896771317299,-4617.380074252929,6418.244396715788,0.9946528273952121,-1.1741211361437712e-05,0.0001118214945435407,0.10327507111015571
0.35000000000000003,1.681754415949103e-05,0.0006440222306342364,-0.00727476398722099,-41.914080031554676,47.835430293348644,5.106830897590571,-1653715.9471388157,5087764.096596014,3587834.3910625917,-208.02141251783638,-4617.38295373923,6418.417112943645,0.9946547074890124,-1.1852501742275212e-05,0.00011342513917249369,0.10325696036686001
0.355,-2.0395870132688992e-06,0.000649016737752454,-0.007285929470555675,-41.922490091560576,47.814531384055655,5.102763428244091,-1653716.9865752812,5087741.009674084,3587866.4835798475,-207.7531736732021,-4617.385817966042,6418.589789444322,0.9946565850661436,-1.1978994914284645e-05,0.00011503071427291248,0.10323887063018383
0.36,-6.898863468921979e-06,0.0006536688753355304,-0.007293459822810985,-41.9123308020343,47.805041428945145,5.100893013282814,-1653718.0246705536,5087717.92273794,3587898.576960248,-207.48493531388308,-4617.388639703615,6418.762370700331,0.9946584651909526,-1.2153671285640558e-05,0.00011664384157671943,0.10322075309975724
0.365,-1.6083296697063895e-05,0.0006382291446566236,-0.007273069722079194,-41.917070364982884,47.795021102852154,5.099391610800263,-1653719.0614247983,5087694.835787655,3587930.671203487,-207.21676258513162,-4617.391474623293,6418.934924938196,0.9946603469244925,-1.2341633642874227e-05,0.00011826728288730355,0.10320261681072909
0.37,-2.5480248560822346e-05,0.0006167576005658105,-0.007261567641777233,-41.9226105393099,47.79051312980984,5.100381954090544,-1653720.0968381804,5087671.748823245,3587962.7663093954,-206.9485902382637,-4617.394289386878,6419.107438372764,0.9946622230691718,-1.2548444894606599e-05,0.00011984996192394888,0.10318453119346965
0.375,4.139072895671281e-06,0.000642440786752328,-0.007270552047239482,-41.91291291671785,47.78175617706132,5.106828238287059,-1653721.1309106757,5087648.661844809,3587994.8622778403,-206.68040781528856,-4617.397085122022,6419.279939618455,0.9946640959221215,-1.2773080850379327e-05,0.00012137682489695075,0.1031664741470971
0.38,-4.8117050740714434e-06,0.0006338026259132299,-0.00727180909112339,-41.91140787324267,47.77794715490573,5.100627483912563,-1653722.1636424407,5087625.5748524405,3588026.9591087885,-206.41229824021403,-4617.399861999746,6419.452439616666,0.9946659707547676,-1.293069044869967e-05,0.00012297519220300587,0.10314839471545477
0.385,5.752346208346434e-07,0.0006472794042687721,-0.007290283408696825,-41.92115346106593,47.76834583156057,5.0990134004556085,-1653723.1950336855,5087602.487846125,3588059.056802178,-206.144199638341,-4617.402664270126,6419.624916152981,0.9946678455827281,-1.3108330483673409e-05,0.0001245497710699565,0.1031303121266499
0.39,1.982947581279118e-05,0.000635469533652457,-0.007270216927160724,-41.914036649811464,47.753664119791274,5.097744170751993,-1653724.2250843798,5087579.40082587,3588091.155357841,-205.87607806860595,-4617.405437468482,6419.797348983178,0.9946697248377043,-1.3276055388248875e-05,0.00012615925047706065,0.10311218356176662
0.395,3.117079350996091e-05,0.000625020252820933,-0.007274512794559919,-41.91383234515145,47.75141389719901,5.102190334758696,-1653725.2537946217,5087556.313791769,3588123.254775545,-205.60801872695524,-4617.408203339877,6419.96973281893,0.9946715985922412,-1.3392850578685012e-05,0.0001277443265733041,0.10309410485558418
0.4,1.368944470207502e-05,0.0006465228577458415,-0.007293884833006871,-41.91048192690198,47.737624815682736,5.092738122552775,-1653726.2811646068,5087533.226743877,3588155.3550551976,-205.339975344436,-4617.4109535073785,6420.142128184581,0.9946734731264332,-1.3478751771910401e-05,0.00012930634153348794,0.10307601542935271
0.405,-1.0188076583997454e-05,0.0006536021861224778,-0.007270843513192625,-41.91052527029695,47.716896648214004,5.099836096744354,-1653727.3071944583,5087510.139682186,3588187.4561966485,-205.0719651981833,-4617.413722856812,6420.314452079351,0.9946753523126929,-1.361367081499599e-05,0.00013091732120502022,0.10305787780147266
0.41000000000000003,3.217057860420827e-07,0.000643734184728328,-0.00727448226303916,-41.92013452330918,47.723592199511536,5.092424688157586,-1653728.3318843886,5087487.05260682,3588219.558199578,-204.80400695865603,-4617.416423320407,6420.486719767631,0.99467722522703,-1.3809782218363878e-05,0.00013253975378395405,0.10303979744331744
0.41500000000000004,6.790312240722247e-06,0.0006308634189591513,-0.00727933369591233,-41.91212434789301,47.70705242467739,5.095507681790115,-1653729.3552343792,5087463.965517874,3588251.661063862,-204.53598924776136,-4617.419155082184,6420.658993785192,0.9946790987509104,-1.3977218227725924e-05,0.00013414035481710816,0.10302170799923337
0.42,-6.575914991249644e-06,0.0006545534196962229,-0.007282792935823371,-41.90763288044837,47.70077441293352,5.0939116615120925,-1653730.377244469,5087440.878415337,3588283.7647894067,-204.26804669908674,-4617.4218599290025,6420.831224168217,0.9946809731971172,-1.4125255469583545e-05,0.00013571061594897814,0.10300360645502507
0.425,-8.06833673273247e-07,0.0006354811137881971,-0.007259274189262619,-41.91120362436443,47.68940858270002,5.097354654784897,-1653731.397914933,5087417.791299256,3588315.869376058,-204.00013887972594,-4617.424572525882,6421.00343647868,0.9946828481934565,-1.4312632098927456e-05,0.0001373363449718176,0.10298549627801983
0.43,-1.1826533265197406e-05,0.0006466947147842882,-0.0072809191703677775,-41.90883739500228,47.67667908417649,5.089201033286458,-1653732.4172458937,5087394.704169712,3588347.974823693,-203.7322454206135,-4617.427244781967,6421.17561733194,0.9946847168100705,-1.4480744205742333e-05,0.00013891613288081285,0.10296744454965388
0.435,-3.63248809636778e-05,0.0006256666581099986,-0.00726834847606988,-41.91314797647365,47.66828235084105,5.085222747344637,-1653733.4352374584,5087371.617026771,3588380.0811320706,-203.46438048968068,-4617.429931494357,6421.347733772292,0.9946865906630721,-1.4679153231344003e-05,0.0001405209682780325,0.10294933896560048
0.44,-2.4156510091095474e-07,0.0006565692704835239,-0.0072492635130591765,-41.89723380836341,47.65678967650841,5.093640965205432,-1653734.4518896888,5087348.529870411,3588412.1883009286,-203.19651167498984,-4617.432612390849,6421.519809412808,0.9946884609556842,-1.493306621947035e-05,0.00014206720805298256,0.10293126461636601
0.445,1.8765308540839808e-06,0.0006460506262761316,-0.007258441476861692,-41.90742319644892,47.64110415999147,5.090798379560295,-1653735.4672028457,5087325.442700698,3588444.296330161,-202.92875102693515,-4617.435273179244,6421.691883466901,0.9946903259974428,-1.5105195391902902e-05,0.00014369957992645664,0.1029132376779816
0.45,-9.43859297770547e-06,0.0006377345794108957,-0.0072467699953467695,-41.89927965087972,47.635970008290684,5.092627484341449,-1653736.4811771605,5087302.355517778,3588476.405219583,-202.66097487146737,-4617.437894858667,6421.863885316245,0.9946921930746391,-1.526935446328273e-05,0.00014530633937189777,0.10289518788203661
0.455,-2.184359941720642e-05,0.000623186965168569,-0.007242979714942728,-41.903359286032924,47.62212375935983,5.085812837948894,-1653737.4938127277,5087279.268321739,3588508.5149690122,-202.393252084806,-4617.440520880949,6422.0358863822985,0.9946940568225071,-1.545950775008558e-05,0.00014688950876802007,0.10287716708025635
0.46,-1.6715809651829713e-05,0.0006529998765596322,-0.007286261365545638,-41.90511693169972,47.62154792147373,5.095089384007887,-1653738.5051096897,5087256.181112586,3588540.62557827,-202.12553268654338,-4617.443140248006,6422.2078167600275,0.9946959192716207,-1.567676606199298e-05,0.00014843331171871235,0.1028591556750124
0.465,3.409035091679161e-06,0.0006615736590805717,-0.007275047369249672,-41.894862041458985,47.60513396041627,5.079047701445711,-1653739.5150680803,5087233.093890423,3588572.737047255,-201.85782355328152,-4617.445724674908,6422.379777236268,0.994697792509027,-1.588895527813904e-05,0.00015005256847733974,0.10284103660230443
0.47000000000000003,-2.420750765093409e-06,0.0006685600975340414,-0.007265966577795103,-41.89122965148152,47.59281043852485,5.085119709642785,-1653740.5236880763,5087210.006655205,3588604.8493758054,-201.59017485305554,-4617.44836247144,6422.551642996549,0.994699662528639,-1.6053299277360178e-05,0.0001516983205873997,0.10282294537370079
0.47500000000000003,-6.07779297632101e-06,0.0006291104300332595,-0.007268911730703826,-41.89602331591265,47.58796459449705,5.07643395196933,-1653741.530969958,5087186.919406894,3588636.96256363,-201.32257784948723,-4617.4509621588795,6422.72348686332,0.9947015298797074,-1.6233932957890615e-05,0.0001533599479419118,0.10280487669442359
0.48,-1.1069432436752536e-05,0.0006285939253666028,-0.00724804845281162,-41.893828975224935,47.57572735905305,5.080783483772656,-1653742.5369138084,5087163.832145534,3588669.076610574,-201.05496228423294,-4617.4535816611515,6422.895290764852,0.9947033976717238,-1.641352288038485e-05,0.00015492253360989915,0.10278680066007287
0.485,-8.392732264318718e-06,0.0006418723726298937,-0.007272084929710869,-41.897846529380864,47.55813037975911,5.072920964859307,-1653743.5415196882,5087140.744871163,3588701.1915164688,-200.7873895852671,-4617.456167107533,6423.0670670547,0.9947052597725613,-1.6605384994127057e-05,0.00015648255297359744,0.10276877647550986
0.49,1.054560717486866e-05,0.0006226881298227962,-0.0072615522375150295,-41.89842868829632,47.547820120210886,5.0830810499914,-1653744.544787727,5087117.6575838905,3588733.307281023,-200.5198260013915,-4617.458741578746,6423.238754551579,0.9947071277136188,-1.6794011710677985e-05,0.00015807627934385113,0.10275069248220917
0.495,-1.3005649995525332e-06,0.0006448281848468309,-0.007259892764690393,-41.887817100208444,47.53647691669123,5.075018309386192,-1653745.5467180342,5087094.570283893,3588765.4239039994,-200.25229679773489,-4617.461257777409,6423.410436160604,0.994708992626668,-1.6930611020573387e-05,0.00015962716416483566,0.1027326346404208
0.5,1.8760499690779158e-05,0.0006309253888663095,-0.007245459976105579,-41.87965814853361,47.53485450721625,5.0760319253300255,-1653746.5473108527,5087071.482971228,3588797.5413852553,-199.984830597384,-4617.4638081811445,6423.582066195441,0.9947108567739325,-1.7102354663037684e-05,0.00016123006381144032,0.1027145808950469
0.505,1.844218006930084e-05,0.0006491962800663948,-0.007262743773683445,-41.89177731076598,47.52007981596562,5.072238942978904,-1653747.546566455,5087048.395645771,3588829.6597246896,-199.7174103904632,-4617.466374192848,6423.753707405553,0.9947127168919634,-1.7220635035570615e-05,0.0001628035422760941,0.1026965629992804
0.51,-1.9083303619639745e-05,0.0006466142978430082,-0.007246393567215641,-41.88804178752707,47.50362092641967,5.080327317686134,-1653748.5444848887,5087025.308307579,3588861.7789221476,-199.44996310141505,-4617.468902936424,6423.925275811832,0.994714581110312,-1.7344404922820035e-05,0.0001644223739364249,0.10267850208778487
0.515,-4.225115263196705e-06,0.0006285249009345512,-0.007242423716969255,-41.883112058367,47.494279742206935,5.072468843824286,-1653749.5410662417,5087002.220956881,3588893.8989773653,-199.18257803897387,-4617.471376342834,6424.096811245295,0.9947164408012543,-1.756082316276094e-05,0.00016602515276165127,0.10266048181725465
0.52,4.7770265419144326e-08,0.0006446493726781606,-0.007233090889651514,-41.880663127267844,47.48096161771701,5.0725880093500475,-1653750.5363107545,5086979.133593749,3588926.0198901407,-198.9152271378973,-4617.473876027315,6424.268298964603,0.9947182991526855,-1.7735647873063884e-05,0.0001675867605269506,0.10264247137960521
0.525,9.789466125722046e-06,0.000636286230817061,-0.007246618899188827,-41.877282275437906,47.47233460502347,5.068808258445779,-1653751.5302186143,5086956.046218169,3588958.1416602456,-198.6479167381891,-4617.476356338048,6424.439743032734,0.9947201547744916,-1.790398051287897e-05,0.00016918956336735893,0.10262448411441996
0.53,1.5499966472024225e-05,0.0006421499928820037,-0.007236205407416651,-41.87832906006359,47.45301474371465,5.063165971584184,-1653752.5227899998,5086932.958830165,3588990.2642874843,-198.38063748851354,-4617.478845263381,6424.611152371638,0.9947220135426154,-1.8045947557946235e-05,0.00017077406742325922,0.10260646317014664
0.535,6.885746622546536e-06,0.0006253728373880697,-0.007234212597502853,-41.87454682082184,47.45284075323241,5.06526501186333,-1653753.51402506,5086909.87142976,3589022.387771552,-198.11338660265767,-4617.4813165839705,6424.782474653181,0.9947238693087149,-1.817521339988131e-05,0.0001723746187611852,0.10258846808560432
0.54,1.8253078695681037e-05,0.0006228552668943354,-0.007221320132547599,-41.86886554925623,47.437488424313436,5.068894120625161,-1653754.5039239286,5086886.7840169845,3589054.5121122715,-197.84616085057317,-4617.483793497235,6424.953813292255,0.994725724242606,-1.832159744559058e-05,0.00017393123924121627,0.10257047792745326
0.545,-7.429416675168397e-06,0.0006350334265902477,-0.00723677593053675,-41.86560406617884,47.41956256696281,5.069257424023173,-1653755.4924868264,5086863.696591903,3589086.637309586,-197.57899825596152,-4617.486239170568,6425.125112560123,0.9947275755449418,-1.843906186417361e-05,0.00017548451440593826,0.10255251979190153
0.55,2.635590851125653e-05,0.0006244164601381046,-0.00724692333476865,-41.873710799146906,47.412420866345094,5.05594996143267,-1653756.4797140432,5086840.609154666,3589118.7633632445,-197.31188845727283,-4617.488655587145,6425.296350825685,0.99472943047597,-1.8623523025613495e-05,0.00017706148916706659,0.10253452319753505
0.555,-1.0983832854600491e-05,0.0006243559032310994,-0.0072349256349335134,-41.87032628597382,47.395342968462444,5.0659326683013735,-1653757.4656056229,5086817.521705282,3589150.8902729317,-197.04474342645403,-4617.491097955752,6425.467524029801,0.9947312876859011,-1.872124901550542e-05,0.000178620721280311,0.10251650132004073
0.56,4.142958269100014e-06,0.0006464814299666669,-0.007232298814536064,-41.86597714295554,47.37702845750415,5.05870004651559,-1653758.450161638,5086794.4342438495,3589183.018038409,-196.77766255186114,-4617.493475356056,6425.638666704781,0.9947331414908125,-1.8911811643941332e-05,0.00018017023345237912,0.10249850926159779
0.5650000000000001,3.372491003149201e-06,0.0006434843676106838,-0.0072188476531749295,-41.85657964080717,47.377671480566335,5.060409285151723,-1653759.43338237,5086771.346770524,3589215.1466593915,-196.5106302935516,-4617.495854819897,6425.8097264721655,0.9947349942855389,-1.9070424865587884e-05,0.00018177864435990496,0.10248052369397948
0.5700000000000001,-1.633941884892368e-05,0.0006322910447210407,-0.007232704172952504,-41.854483661627576,47.35164705793639,5.050934216816148,-1653760.4152680614,5086748.25928525,3589247.2761357315,-196.2436463223275,-4617.498254824553,6425.980809545536,0.9947368433082111,-1.923018014370463e-05,0.00018337940524720578,0.10246257154399996
0.5750000000000001,4.4701721365503905e-07,0.0006482164814718048,-0.007261755303016677,-41.853118179385795,47.350975254797746,5.060546197783473,-1653761.3958189574,5086725.171788004,3589279.406467181,-195.97671198918295,-4617.500643405495,6426.1517702484,0.9947386955573664,-1.9436094933832393e-05,0.0001849472800489149,0.10244458491092193
0.58,1.7573483653433285e-05,0.000641635604622874,-0.007244185389907566,-41.8523243890678,47.33416921251595,5.058693224395981,-1653762.3750352436,5086702.084278891,3589311.5376535174,-195.70980247732248,-4617.5030018826465,6426.322764216809,0.9947405549112126,-1.9604356542967284e-05,0.00018655905669696872,0.10242652598970883
0.585,1.8710830677690962e-05,0.0006454024256126138,-0.007249450399731297,-41.83969712692856,47.32401571851264,5.04811610550551,-1653763.3529170742,5086678.996758043,3589343.6696946616,-195.44292983512892,-4617.5053373462115,6426.493693481951,0.9947424094402615,-1.972833383333058e-05,0.00018815885399274654,0.10240851072065064
0.59,6.498740026886272e-06,0.0006428099227469005,-0.007211747155183437,-41.847417813709505,47.30578674016278,5.061692054437423,-1653764.3294647082,5086655.90922539,3589375.8025903217,-195.17612378911832,-4617.507723704759,6426.664570613234,0.9947442649864708,-1.9850449561834446e-05,0.000189768309693108,0.10239048232367166
0.595,1.1804032904455396e-05,0.0006387334692935777,-0.007213276456209667,-41.83895696890106,47.29421242129313,5.04874579942331,-1653765.304678365,5086632.821681067,3589407.9363402813,-194.90933883598035,-4617.510005441598,6426.835413220732,0.9947461105545455,-2.0002253545396754e-05,0.0001913681940040116,0.1023725476616078
0.6,2.5203530334366583e-05,0.0006287416095549672,-0.007228736096021299,-41.839612275121894,47.2806452128417,5.051881174599247,-1653766.2785582154,5086609.734125215,3589440.0709442836,-194.64260132511433,-4617.512335567148,6427.006187744259,0.9947479561902597,-2.013982141310184e-05,0.0001929592983760578,0.10235460916049716
0.605,-1.8618558695578933e-07,0.0006394492736354441,-0.00722714718863665,-41.82986723887739,47.26526264954364,5.041909722152006,-1653767.2511044552,5086586.646557807,3589472.2064020615,-194.37589466499887,-4617.5146273902155,6427.176923378381,0.9947498054607004,-2.024151714294734e-05,0.00019452898220202183,0.10233663217369905
0.61,-7.079049116981501e-06,0.0006292507510914056,-0.00721747132045476,-41.838380787446994,47.24866531554405,5.05501036242358,-1653768.2223173217,5086563.558978864,3589504.3427133323,-194.10925193016885,-4617.516949803369,6427.347584887996,0.994751653990833,-2.0409092596539215e-05,0.00019611879891623754,0.10231865911644762
0.615,-3.850222090691793e-07,0.0006041883260435658,-0.007235618646236163,-41.8307336627778,47.241517949268136,5.043628963525169,-1653769.1921970095,5086540.471388561,3589536.4798778356,-193.84262312284602,-4617.519171566931,6427.518216459348,0.9947534997237574,-2.0591196269992107e-05,0.00019768149039540658,0.10230071009219639
0.62,1.029319844343866e-05,0.0006469039261195551,-0.007209529951598557,-41.82769377673452,47.229580187799385,5.037753501701099,-1653770.1607436473,5086517.383787022,3589568.6178953806,-193.5760320711606,-4617.521444030354,6427.688801582739,0.9947553497835758,-2.0750251878721357e-05,0.00019918356554709393,0.10228271590200394
0.625,1.6676536590889348e-05,0.0006447294782096171,-0.007228200108859284,-41.817688681198796,47.21398830441636,5.046992714466362,-1653771.1279574123,5086494.296174099,3589600.7567657153,-193.30947389137737,-4617.52372508454,6427.8593323362,0.9947571928248592,-2.0893661615701733e-05,0.00020079460140947521,0.10226478655035139
0.63,3.5204178387758524e-06,0.0006306140195342951,-0.007217576744998192,-41.81654144341624,47.19982150132591,5.043220032640376,-1653772.0938386114,5086471.208549884,3589632.8964886516,-193.04300579795625,-4617.525961035667,6428.029842023766,0.9947590403142293,-2.10206501155237e-05,0.0002024018605882492,0.10224681073135053
0.635,-7.040923501324394e-07,0.0006340384248277143,-0.00723123040321557,-41.816081273290784,47.1827046672289,5.048017751510735,-1653773.0583875482,5086448.12091451,3589665.037063988,-192.77656884717388,-4617.5281882362215,6428.200292602363,0.9947608847676541,-2.117674300154715e-05,0.00020397065363051642,0.10222886130536775
0.64,2.5354019872073894e-05,0.0006215647765367298,-0.007201723695720476,-41.81520814963878,47.172645977356936,5.0376754716257155,-1653774.0216044108,5086425.0332681285,3589697.1784914583,-192.51017628240922,-4617.530364752049,6428.370695457728,0.9947627323816265,-2.1344223969336422e-05,0.00020554688237682154,0.10221087789244246
0.645,5.6267085892957276e-06,0.000621485438756725,-0.007217046014641132,-41.80494158085588,47.162755436102145,5.037611631241615,-1653774.983489346,5086401.945610798,3589729.32077079,-192.24379774031308,-4617.5325672763165,6428.541037259935,0.9947645721373991,-2.1443698313952922e-05,0.0002070987503853883,0.10219296781370459
0.65,-8.158417186315698e-06,0.0006420948861428442,-0.007232089864449695,-41.811074099535524,47.14643075519667,5.038353924782445,-1653775.9440425606,5086378.857942442,3589761.463901771,-191.97748816286492,-4617.5347749401835,6428.711355313811,0.9947664154811895,-2.1592220391146657e-05,0.0002086453802175122,0.10217501960649072
0.655,6.8089445085606505e-06,0.0006297219482427909,-0.0072014922655073985,-41.80130035015735,47.13215016006012,5.028548048171755,-1653776.903264248,5086355.770263164,3589793.6078841896,-191.711186783712,-4617.536936166094,6428.881611961489,0.9947682623292593,-2.1780297185432603e-05,0.00021023974189548553,0.10215703395897753
0.66,-3.093958767387993e-06,0.0006411609555835563,-0.00719026518187021,-41.79566573979598,47.12014070691638,5.033827094205439,-1653777.8611545842,5086332.682573,3589825.752717718,-191.44494763237736,-4617.53912990642,6429.0517994064685,0.994770101043921,-2.192797529294248e-05,0.00021180715720891093,0.10213912436456014
0.665,-1.608817175506956e-05,0.0006220683039353861,-0.007200560138611708,-41.78997153679072,47.09815125068055,5.035572946055533,-1653778.8177138716,5086309.594871941,3589857.89840213,-191.17876737775958,-4617.541293361357,6429.221965531966,0.994771936560724,-2.210319615406992e-05,0.00021340049234026907,0.1021212426623642
0.67,7.962382865137197e-06,0.0006333405756263998,-0.007225177979519403,-41.79435279499049,47.09082120893037,5.03561238371693,-1653779.7729424397,5086286.5071601635,3589890.0449371943,-190.91265982998402,-4617.5434177152265,6429.392059989009,0.9947737743909519,-2.2305863783123818e-05,0.00021494302728508561,0.1021033353320207
0.675,3.010307081210242e-06,0.0006416314694250398,-0.007219458504199257,-41.786885517257524,47.06952043778544,5.033605525915852,-1653780.726840467,5086263.419437813,3589922.1923226668,-190.64655108793045,-4617.545522591917,6429.56212902173,0.9947756181744611,-2.2451609822293458e-05,0.000216519733291924,0.1020853667317171
0.68,1.953663345139998e-05,0.0006410072705653022,-0.007221006847953321,-41.78276516736416,47.0576180287184,5.020074105685853,-1653781.679408137,5086240.331704985,3589954.3405582896,-190.38051694846632,-4617.547608401053,6429.73212021133,0.994777460166682,-2.2611784216110796e-05,0.0002181157946599777,0.10206741232407474
0.685,-4.108976713810646e-06,0.0006051924911481788,-0.007206349859014283,-41.77842514004645,47.04472444341478,5.022539374734691,-1653782.6306457059,5086217.243961627,3589986.489643682,-190.11451059724263,-4617.549735199611,6429.9020366567565,0.994779302228586,-2.273070012846622e-05,0.00021971452051990482,0.10204945402329395
0.6900000000000001,3.2891766867423606e-06,0.0006357629202648552,-0.00721145197168013,-41.77301674448734,47.02386009015781,5.030091167879532,-1653783.5805533708,5086194.156207693,3590018.6395785715,-189.84855533948118,-4617.551838102923,6430.071919259866,0.9947811402435227,-2.2899276194726858e-05,0.00022121814508354058,0.10203153215527187
0.6950000000000001,1.4213620039824286e-05,0.0006516195607202599,-0.007205296331940487,-41.770925803907915,47.01566257632061,5.028182787107299,-1653784.5291314514,5086171.068443395,3590050.790362747,-189.58267689013616,-4617.553881038342,6430.241750737103,0.9947829792179154,-2.3057254085805106e-05,0.0002227996836108538,0.10201359755930892
0.7000000000000001,1.1887719758074442e-05,0.0006383515941047617,-0.007200967657255358,-41.760189985366125,47.01018267944325,5.018777848493475,-1653785.4763802069,5086147.980668884,3590082.9419960068,-189.31682531934757,-4617.555923456345,6430.411553286088,0.9947848162885712,-2.3192103897237206e-05,0.00022442344331456332,0.10199567823176747
0.705,-4.693820799784442e-06,0.0006182898609304547,-0.007205534098088543,-41.75349144181594,46.98642569422618,5.020249528105056,-1653786.4222998323,5086124.892884028,3590115.0944782007,-189.0510248241501,-4617.558018856706,6430.581324243281,0.9947866519375923,-2.3329352510024642e-05,0.00022601361318712004,0.1019777696382092
0.71,-1.1952810493055931e-05,0.0006373151351643027,-0.00720354690472296,-41.75130240053797,46.97926189091446,5.011811657119837,-1653787.3668906551,5086101.805088796,3590147.2478090525,-188.785304357651,-4617.560074222397,6430.7510164292125,0.9947884884361128,-2.3502726806407965e-05,0.00022754966248724764,0.10195984966528178
0.715,4.5000246445098225e-06,0.0006191935660608189,-0.007184929115741235,-41.746763990163785,46.95047119689445,5.011183977187437,-1653788.3101529183,5086078.717283216,3590179.4019882577,-188.51960093929267,-4617.562157384049,6430.920665678582,0.9947903240916792,-2.369900239836225e-05,0.00022913117682550157,0.10194193460413072
0.72,7.552450176504563e-06,0.0006406595138811732,-0.007191998518142475,-41.7418359293596,46.939669118108974,5.006711815889316,-1653789.2520868564,5086055.629467341,3590211.557015442,-188.2539742734725,-4617.564192837921,6431.090208023396,0.9947921546895155,-2.3849731145321947e-05,0.00023067181737273555,0.10192406580339157
0.725,5.488794456378101e-06,0.0006403917091581617,-0.007175951369586788,-41.73958405610874,46.931467217779854,5.018077224491913,-1653790.1926927636,5086032.541641264,3590243.712890227,-187.9883885856348,-4617.566237715693,6431.25970603242,0.9947939867527615,-2.3998342380551634e-05,0.00023226662060364474,0.10190617938497659
0.73,-9.4045095788684e-06,0.000627448822990436,-0.007180763674176371,-41.73041585034139,46.90751829620588,5.006712024151755,-1653791.1319708538,5086009.4538050955,3590275.869612523,-187.72284750896875,-4617.56823004009,6431.429212321483,0.9947958144043487,-2.4152008343260383e-05,0.00023386023294731347,0.101888332843661
0.735,-3.7894321182216913e-06,0.0006195294357736211,-0.00718494388691541,-41.72983155978515,46.89742733203642,5.00846896401613,-1653792.069921426,5085986.365958926,3590308.027182067,-187.4573813592516,-4617.570237519473,6431.598605191779,0.9947976429655195,-2.433941978020789e-05,0.0002354178624672513,0.10187047431061351
0.74,2.17267112624375e-05,0.0006428510198178385,-0.0071911949999793594,-41.72896415668328,46.89059922113946,5.0116694871141245,-1653793.006544738,5085963.278102776,3590340.1855985057,-187.19194341499673,-4617.572222574814,6431.767970373113,0.9947994722730952,-2.4510852125602082e-05,0.00023695722621351376,0.10185260534548216
0.745,6.864418841416841e-06,0.0006188505329279323,-0.007198591792937206,-41.7294565753844,46.865472250220094,5.005534534103014,-1653793.9418409236,5085940.190236751,3590372.344861745,-186.92653089116433,-4617.574187575664,6431.937325385923,0.9948013028364219,-2.4624767961451094e-05,0.00023856108746256584,0.10183472078415134
0.75,1.7154466969170765e-05,0.0006383468753894797,-0.0071675671255734775,-41.718051042771656,46.849245456706086,5.008737881312675,-1653794.8758101482,5085917.10236097,3590404.50497148,-186.66115884921518,-4617.576124564155,6432.106568739439,0.9948031349719378,-2.4769540563195842e-05,0.00024010147514591767,0.1018168178041125
0.755,5.08161550262145e-06,0.000622413191249966,-0.007192389852048417,-41.70662059241573,46.83293037477239,5.007961718847458,-1653795.8084527364,5085894.014475555,3590436.6659273338,-186.39587646517356,-4617.578041595736,6432.275772633167,0.9948049588760431,-2.4893665742748442e-05,0.00024169297147880496,0.10179899194219515
0.76,2.1723397399779175e-06,0.0006424198998764747,-0.007152660839779234,-41.6977974124578,46.8279766006518,4.9978314399772215,-1653796.7397691247,5085870.926580566,3590468.8277290794,-186.13067889099233,-4617.579954144968,6432.444925581816,0.9948067887833463,-2.5043776161720663e-05,0.00024324176640813715,0.101781104321083
0.765,2.2708972750340313e-06,0.000607756741458051,-0.007173337643785423,-41.699014182106296,46.81176042023519,5.003421979203506,-1653797.6697596267,5085847.838675881,3590500.9903765065,-185.8655218900933,-4617.581919799515,6432.614045366564,0.9948086082467921,-2.520618859363446e-05,0.00024483958049671716,0.10176331547423453
0.77,2.9629394845058745e-05,0.0006229203373498606,-0.007179826899587193,-41.69107171973127,46.784640891211986,4.995111311725064,-1653798.598424434,5085824.750761506,3590533.1538694245,-185.60040099525665,-4617.583830125449,6432.783121784193,0.994810432670366,-2.5359549964117252e-05,0.0002463512102561256,0.1017454751729714
0.775,3.5361025385231054e-09,0.0005957207439212303,-0.007167401231409222,-41.683936232964676,46.76847166329013,4.994448769649954,-1653799.5257638341,5085801.662837597,3590565.3182074274,-185.33535913159633,-4617.58573378011,6432.95207937397,0.9948122584143838,-2.544873109413906e-05,0.000247907510791049,0.10172761868195647
0.78,-1.712862853685653e-05,0.0006303138740482469,-0.007174949029131216,-41.68246512343213,46.76049935219688,4.993938025271431,-1653800.4517781888,5085778.574904202,3590597.483390084,-185.07038270393636,-4617.587624016747,6433.120983325352,0.9948140806910165,-2.560466755881528e-05,0.0002493886313936388,0.1017097930810956
0.785,1.3230999347337593e-05,0.0006144288519771078,-0.007171691352574264,-41.67098353214755,46.74796055033684,4.9945657073406275,-1653801.3764677248,5085755.486961373,3590629.6494171987,-184.80543166625299,-4617.5895074243,6433.289862544893,0.9948159045421135,-2.5812013167841752e-05,0.00025095142949239734,0.10169194868413335
0.79,3.4499825918796205e-06,0.0006439225252285048,-0.0071638063166738555,-41.677870497282264,46.71714635197712,4.986960678829021,-1653802.2998327054,5085732.399009131,3590661.8162886305,-184.54056060870846,-4617.591389600609,6433.458710078356,0.9948177272545907,-2.593981267590392e-05,0.00025248243936286174,0.10167411233816953
0.795,2.2391734006756498e-05,0.0006339565484065865,-0.007155379921674084,-41.67906955541923,46.71042139714957,4.990798809586173,-1653803.2218733812,5085709.311047598,3590693.9840039387,-184.27570969156326,-4617.59322337751,6433.6274133376055,0.9948195476216537,-2.609942987825064e-05,0.0002540843155449554,0.10165629557400091
0.8,6.672736634547024e-06,0.0006251658485279361,-0.007155248506947296,-41.6594391728666,46.6875733587753,4.983747697010537,-1653804.1425898443,5085686.223076964,3590726.1525627393,-184.01087552973434,-4617.595030511665,6433.796106877689,0.9948213655335388,-2.620939989748585e-05,0.00025566622019412724,0.10163849972247908
0.805,-9.322175347842937e-06,0.0006264775441910396,-0.007159284200438752,-41.656596321048596,46.67608978398593,4.97649306751576,-1653805.0619824496,5085663.135097238,3590758.3219647873,-183.74616664238866,-4617.59685971226,6433.964712221529,0.9948231830958209,-2.6356230126481825e-05,0.00025722226769104813,0.10162070417564044
0.81,5.450975011065976e-07,0.0006306152566759365,-0.0071829859677811254,-41.64391040557659,46.65333409060734,4.986590067689456,-1653805.9800515836,5085640.04710833,3590790.49220972,-183.48148697512963,-4617.598703379914,6434.133260867548,0.994825001360537,-2.654317645387085e-05,0.00025877751356666117,0.10160289856921313
0.8150000000000001,-9.080387606240249e-06,0.0006085152765657565,-0.007152991291109205,-41.64390287150498,46.64162492850978,4.9821286599685255,-1653806.8967976093,5085616.959110353,3590822.6632972816,-183.2169232775213,-4617.600487515419,6434.301763805717,0.9948268253214501,-2.6706648591018127e-05,0.0002603455548940371,0.10158503397544395
0.8200000000000001,6.593317119410495e-06,0.0006255173141238987,-0.007148573639632013,-41.64077098063095,46.62531080079284,4.980797582569531,-1653807.8122208677,5085593.871103462,3590854.835227228,-182.95238009590133,-4617.602268794641,6434.4702145932215,0.9948286413567257,-2.6888427855971336e-05,0.000261856189494121,0.10156724395532211
0.8250000000000001,-6.08791715321709e-07,0.0006269818620147201,-0.007141359607277313,-41.62526242724417,46.60748888271978,4.973180388331401,-1653808.7263215273,5085570.783087714,3590887.0079992786,-182.68788373698078,-4617.604030734696,6434.638605850944,0.994830455939902,-2.7035539719596755e-05,0.00026341308942914214,0.10154946487811108
0.8300000000000001,-2.24384713564304e-05,0.0006266881071308465,-0.007123342306341336,-41.622556767007815,46.57920818822808,4.969557848483274,-1653809.6390999476,5085547.695063086,3590919.181613104,-182.42348433430476,-4617.605820023174,6434.8069242388065,0.994832268370319,-2.7200930827027928e-05,0.0002649718037834291,0.10153170371474173
0.835,9.539730951064107e-06,0.0006406991278199353,-0.0071383783266428325,-41.6282597628781,46.574185337709544,4.974604769847792,-1653810.5505565298,5085524.607029609,3590951.356068234,-182.15914851819397,-4617.607570659088,6434.975127749194,0.9948340759073858,-2.7420527601251826e-05,0.0002665242476745315,0.10151398734380329
0.84,3.419673062020889e-06,0.0006322161863217009,-0.007150561038012625,-41.61662000977455,46.5522580902125,4.959202364144548,-1653811.4606914201,5085501.518987472,3590983.5313643734,-181.89480767903527,-4617.609284528358,6435.143327985488,0.9948358869345602,-2.7564157658446444e-05,0.00026811965263862916,0.10149623352221668
0.845,1.273591004335599e-06,0.0006231021135585982,-0.007131498353792441,-41.61986165756792,46.53902223501825,4.969016630127745,-1653812.3695047991,5085478.4309366625,3591015.7075012275,-181.6305438681596,-4617.611039041959,6435.311413669007,0.9948377007383536,-2.77208645393514e-05,0.00026969240593336313,0.10147844937318419
0.85,-6.637504687760947e-06,0.000629251172108896,-0.007159883108885417,-41.593460746693125,46.52110428969816,4.9683599222115795,-1653813.2769969264,5085455.342877255,3591047.884478457,-181.36630704379672,-4617.6127242181,6435.479478168124,0.994839509392495,-2.78805838621199e-05,0.0002712419484518863,0.10146071260433004
0.855,-7.494172427474964e-06,0.0006200574879129065,-0.0071350662680567094,-41.599024558283766,46.50441019757925,4.967380033341405,-1653814.1831682567,5085432.254809366,3591080.062295897,-181.10222506916853,-4617.614431414276,6435.647497926474,0.9948413249218357,-2.806155781981399e-05,0.00027280477555718474,0.1014429052120943
0.86,-3.489251895837485e-06,0.0006342129983883082,-0.00715729169772719,-41.586165378326825,46.48913457822907,4.9595490731175085,-1653815.0880191994,5085409.16673304,3591112.240953268,-180.83815205940485,-4617.616099136886,6435.815450333798,0.9948431338435851,-2.824231387918379e-05,0.0002743445214161368,0.10142515951049756
0.865,-4.4533435226540554e-06,0.000643720398100358,-0.0071118482921748785,-41.57805826718511,46.472158030776264,4.958900610083848,-1653815.9915499776,5085386.078648303,3591144.420450237,-180.57415921307881,-4617.617795427413,6435.983337341872,0.9948449480714779,-2.841671381607301e-05,0.00027592048739786927,0.1014073584954925
0.87,1.0751672684173154e-05,0.0006174212444959218,-0.00715492629533979,-41.57070692946109,46.44946105080801,4.9515180326199975,-1653816.8937609694,5085362.990555119,3591176.6007865006,-180.31023753716752,-4617.6194783296605,6436.151168191952,0.9948467504529648,-2.859589050186912e-05,0.0002775198580759657,0.10138967047081252
0.875,-4.844607032743672e-06,0.0006365259131903025,-0.007141425750387696,-41.567442236931626,46.434836562652244,4.962547226351763,-1653817.7946525265,5085339.902453523,3591208.7819616715,-180.0463852984667,-4617.621159664185,6436.318900151282,0.9948485634540758,-2.8730614257297473e-05,0.00027905767059567787,0.10137187526493711
0.88,-1.4056537684084984e-05,0.0006257771600249748,-0.007126814211375686,-41.56261031279355,46.41689719091242,4.950732603409678,-1653818.694224973,5085316.814343682,3591240.9639754575,-179.7825932526728,-4617.622777032883,6436.486614104448,0.9948503726991466,-2.890896011631016e-05,0.00028063904706549143,0.10135411361344196
0.885,1.8641380748856156e-05,0.0006244235815053194,-0.007130092896766379,-41.547409112982415,46.40350816811123,4.951298209288656,-1653819.5924785687,5085293.726225699,3591273.1468275776,-179.5188450792741,-4617.62441606677,6436.654234006162,0.994852177929806,-2.910748337036929e-05,0.00028219135683095134,0.10133638827743133
0.89,-1.0772927428343574e-05,0.000607270539976795,-0.007143025135528849,-41.547997386615044,46.38201907399965,4.949445038464318,-1653820.4894136689,5085270.638099509,3591305.3305177167,-179.25519491442577,-4617.626059682366,6436.821821572257,0.9948539836760357,-2.9224342022847107e-05,0.00028374858346356333,0.10131865473150185
0.895,-9.832800620248783e-06,0.0006294377595917564,-0.007146447732925533,-41.53732556600033,46.363525354562555,4.94655024914261,-1653821.385030615,5085247.549965194,3591337.5150455805,-178.99158350411332,-4617.627666412007,6436.9893239974135,0.9948557923889392,-2.9410022386144223e-05,0.0002852556965857658,0.10130088901097645
0.9,-1.185184055595585e-06,0.0006345602180449597,-0.007137509204932153,-41.53075743661359,46.334491683365684,4.949830984939713,-1653822.27932971,5085224.4618228525,3591369.7004107903,-178.72805456771908,-4617.629270381831,6437.156759905778,0.9948576016331008,-2.9598980851917994e-05,0.0002868181804209159,0.10128311474311193
0.905,7.594514101890526e-06,0.0006170932070050193,-0.007109838178631442,-41.528212717050735,46.32193914532866,4.9443997104470805,-1653823.172311388,5085201.37367264,3591401.886612941,-178.46461666214398,-4617.6308146453675,6437.324100364563,0.9948594082912806,-2.9767722077523186e-05,0.0002883955947610216,0.10126536266753199
0.91,-3.055482740142703e-06,0.0006012235126664376,-0.0071152577700872785,-41.52008142538966,46.30159394866453,4.9382266238640735,-1653824.0639759568,5085178.285514696,3591434.0736516532,-178.2012108205836,-4617.632363053476,6437.491384567996,0.9948612076394423,-2.9910184921808745e-05,0.00028993179071583813,0.10124767937650792
0.915,6.195488762739441e-06,0.0006320958482183624,-0.007136252319253769,-41.50739882228585,46.28794769528624,4.9404046708100715,-1653824.9543236718,5085155.197349007,3591466.261526573,-177.93787516993416,-4617.633912095092,6437.658583421806,0.9948630080532528,-3.0075122932330642e-05,0.00029142582009621196,0.10122998258278959
0.92,1.9659946406976675e-06,0.0006214528350265112,-0.007112650077715885,-41.50399391551332,46.27886010821417,4.931281585389025,-1653825.8433549316,5085132.109175594,3591498.4502374097,-177.6746287361495,-4617.635453580673,6437.825751257679,0.994864813440372,-3.0224880620753436e-05,0.00029299897335561143,0.10121223353089286
0.925,-7.81685380303205e-06,0.0006366538098983564,-0.007111464744551263,-41.49528082054101,46.24763448570655,4.944353221193266,-1653826.7310700214,5085109.020994401,3591530.639783956,-177.41140722323414,-4617.637023456959,6437.992867292742,0.9948666125448277,-3.0382447440294595e-05,0.0002945445872150792,0.10119454315314065
0.93,-1.074048343962778e-05,0.0006370377047625171,-0.0071223493046296,-41.502298119057436,46.23517340039763,4.93446987946015,-1653827.6174692966,5085085.932805606,3591562.8301658947,-177.1483028262333,-4617.638494353602,6438.159908093474,0.9948684110205019,-3.056819058982193e-05,0.0002961255334994821,0.10117685569731723
0.935,9.572031324535546e-06,0.0005910970110984249,-0.007133405254099902,-41.47479089333901,46.21414137615088,4.9428768516510795,-1653828.5025530078,5085062.8446094515,3591595.0213828464,-176.88518170644718,-4617.639967503246,6438.326872554335,0.9948702119313697,-3.076131045770222e-05,0.0002977066941606367,0.10115914113958085
0.9400000000000001,6.678364494561579e-06,0.0006317657894981658,-0.0071128014520057785,-41.47997130783094,46.19619258159014,4.928009360861386,-1653829.386321556,5085039.7564059775,3591627.213434542,-176.6222375838771,-4617.641421986557,6438.493805781232,0.9948720153557562,-3.089229945185901e-05,0.0002991787282985867,0.10114139903981148
0.9450000000000001,1.8356852900160105e-06,0.0006483568962029626,-0.007096080306685309,-41.46668795378733,46.186576934229606,4.930664168490945,-1653830.2687753711,5085016.668195199,3591659.4063206264,-176.35928846684752,-4617.642889579667,6438.660627978943,0.9948738132219395,-3.104075333883564e-05,0.00030075118283224715,0.10112370815212053
0.9500000000000001,1.3480246200612938e-05,0.0006292850967379944,-0.007089398683776392,-41.46177154566967,46.1540663572629,4.92841812152554,-1653831.149914654,5084993.579977079,3591691.60004079,-176.09642459670758,-4617.644358158566,6438.827437354425,0.9948756065316238,-3.120543366608099e-05,0.00030236367943763944,0.10110605882319804
0.9550000000000001,-1.955689813784781e-05,0.0006284145533854618,-0.007100757178882158,-41.45403891611704,46.14064022238842,4.9218266264997546,-1653832.029739824,5084970.491751741,3591723.794594684,-175.83364344123257,-4617.6457773321645,6438.994120261252,0.9948773978524058,-3.133632602254239e-05,0.00030393168463745156,0.10108842607337268
0.96,2.015374168546861e-05,0.0006307635996623592,-0.007111482160062312,-41.44999615312673,46.12219672926082,4.921996199955125,-1653832.9082512266,5084947.4035192635,3591755.9899818455,-175.57091762583664,-4617.647213772796,6439.1607443668345,0.994879191726317,-3.154917676541366e-05,0.0003054891744589826,0.10107076506588784
0.965,2.778280083919716e-07,0.0006187916091103562,-0.007118959049758057,-41.43586304501458,46.10854408174392,4.91828139416157,-1653833.7854491414,5084924.315279675,3591788.186201969,-175.3082483231377,-4617.648621798003,6439.327305125583,0.9948809879950645,-3.1663861015815386e-05,0.00030706253984245257,0.10105307732058916
0.97,1.105438042315939e-05,0.0006214291269722195,-0.007101416555096435,-41.427255826306975,46.07896173655286,4.923345688968239,-1653834.6613339302,5084901.227032999,3591820.383254781,-175.04566716918382,-4617.65004836558,6439.493819552527,0.9948827858431118,-3.182496190116411e-05,0.00030860110646607286,0.10103537096273613
0.975,1.7424828221681786e-06,0.0006138216667804037,-0.007134423552654537,-41.426465732225076,46.07045369569188,4.916401425768483,-1653835.5359060715,5084878.138779351,3591852.581139937,-174.78318935947792,-4617.651411030863,6439.6602429038785,0.9948845789422084,-3.195991193257122e-05,0.0003101489564723889,0.10101770819600725
0.98,7.429376896453866e-06,0.0006144034219657633,-0.0070837830136103955,-41.42242071674755,46.04255157618371,4.909707993161349,-1653836.409165861,5084855.050518849,3591884.779857096,-174.52072643341953,-4617.652789406973,6439.826620657104,0.9948863800647784,-3.211612698431665e-05,0.00031167553071404224,0.10099996330949537
0.985,-1.7500686732898887e-06,0.0006138496009837068,-0.0070824998929694145,-41.404203372932294,46.024595608320986,4.918539276428235,-1653837.281113498,5084831.962251514,3591916.9794058413,-174.25832826947507,-4617.654144726972,6439.992877491017,0.9948881680840153,-3.225830492678579e-05,0.00031320499181346445,0.1009823443403206
0.99,6.41461588483654e-06,0.0006287374840442274,-0.0071067738748683915,-41.39819864582985,46.00805839112565,4.911621687162815,-1653838.1517494693,5084808.873977483,3591949.1797858076,-173.9960603835359,-4617.655467628249,6440.1591089353915,0.9948899554647038,-3.242317334347588e-05,0.00031473075803772655,0.10096472853787912
0.995,-3.3664210394519364e-06,0.0006170377569511463,-0.007074323153158319,-41.3950144964496,45.985186555711216,4.9101685031495945,-1653839.0210742336,5084785.785696818,3591981.380996746,-173.73384523367042,-4617.656798396221,6440.325266547701,0.994891748645999,-3.2571511320346385e-05,0.0003162956125708053,0.10094705232094883
1.0,-1.006779025255426e-05,0.0006195780903491677,-0.007079681626098594,-41.377452103174186,45.96761151859909,4.908974970323341,-1653839.8890880682,5084762.697409584,3592013.5830382565,-173.47168861960418,-4617.658095177953,6440.491337578047,0.9948935333312039,-3.274119867676493e-05,0.0003178289013241725,0.10092945679312865
1.0050000000000001,4.153549410054074e-06,0.0006254675070323747,-0.007084143020856839,-41.37032367982114,45.95050279731553,4.9088638944097776,-1653840.755791404,5084739.609115849,3592045.785909991,-173.20964577037714,-4617.6593985659165,6440.657356156863,0.9948953190521073,-3.292819913896043e-05,0.00031936681702797394,0.10091184791081544
1.01,1.1051960288084846e-05,0.0006549878991820641,-0.007073639592760258,-41.360139958668896,45.92588658154061,4.911490723084089,-1653841.6211846946,5084716.5208156435,3592077.9896116774,-172.94767044751393,-4617.6606839783,6440.823318535918,0.9948971055807289,-3.3081317071960224e-05,0.00032092296840051577,0.10089422788823477
1.0150000000000001,-2.0615586896352343e-05,0.0006058824436332919,-0.007088590008043096,-41.35566370243349,45.9102948402134,4.907212407763831,-1653842.4852683542,5084693.432509109,3592110.194142985,-172.68579339381532,-4617.661929642851,6440.989204434916,0.9948988891227538,-3.3224714637929195e-05,0.00032255428494674997,0.10087663395039558
1.02,-8.68112110284434e-06,0.0005961834633202165,-0.007070596064042039,-41.34849926854811,45.883330202558355,4.896713586011801,-1653843.3480427475,5084670.344196356,3592142.399503562,-172.42396389850808,-4617.663171738518,6441.155026457701,0.9949006761578482,-3.3434505285328686e-05,0.00032405547645244235,0.10085900282492777
1.025,4.246519842378794e-06,0.0006164602496431114,-0.0070641919596222385,-41.34432057878838,45.872162514337944,4.896148379587682,-1653844.2095081734,5084647.2558773905,3592174.6056929366,-172.16220648627024,-4617.664414269583,6441.320723222635,0.9949024583507643,-3.361215175066219e-05,0.00032553555480055853,0.10084141641424732
1.03,5.912274989045377e-06,0.0005979143377961916,-0.0070744770952179455,-41.328879306756335,45.853519419782124,4.884516480129232,-1653845.0696649197,5084624.167552235,3592206.8127107047,-171.90049205832847,-4617.665648195959,6441.4863841588985,0.9949042386008964,-3.376275048876273e-05,0.00032706932624989796,0.10082384588827802
1.035,-8.255561126746113e-06,0.0006051696042528141,-0.007054492428538283,-41.320150210905226,45.82140138256026,4.889827174534366,-1653845.928513326,5084601.079220806,3592239.0205565584,-171.63887037665765,-4617.666923023466,6441.651957317121,0.9949060211457523,-3.390453978358314e-05,0.00032855738808202804,0.10080624974897513
1.04,-4.641539170998979e-06,0.0006154124157958254,-0.007039358594140145,-41.32191868997979,45.8120751987183,4.891431827889097,-1653846.7860538953,5084577.990883181,3592271.2292300262,-171.37735734812452,-4617.668127314581,6441.817429782469,0.9949077983344192,-3.408338025662968e-05,0.00033005992675950053,0.10078870329618632
1.045,-1.2482651158217524e-05,0.000624270379740405,-0.007050882452037527,-41.2991224268683,45.78861159753894,4.887465617294415,-1653847.6422869388,5084554.902539596,3592303.4387307884,-171.11586008566826,-4617.669306454774,6441.982875011911,0.9949095713905372,-3.4255800084002546e-05,0.0003315888538874622,0.10077119444995083
1.05,-5.440090750227208e-07,0.0005906480119667547,-0.007058118335074658,-41.297762550847175,45.76391282815236,4.878330247191341,-1653848.4972128565,5084531.814190079,3592335.6490585767,-170.85450703910325,-4617.670500268318,6442.148240378587,0.9949113470308014,-3.4449964016066066e-05,0.00033313783671209333,0.10075365691496306
1.055,-3.488788063110748e-06,0.000602089066653983,-0.007048813010715869,-41.286832153187035,45.74897452586888,4.882920202730441,-1653849.3508321184,5084508.725834623,3592367.8602128993,-170.5931976634052,-4617.6716823633315,6442.313488640907,0.9949131242109487,-3.4605970296233895e-05,0.00033460619777574173,0.10073610134370195
1.06,1.646351885744728e-06,0.0006085102159902527,-0.007046354671683422,-41.28029077114266,45.72361593178434,4.882511601611447,-1653850.2031450497,5084485.637473315,3592400.072193385,-170.33197492548936,-4617.672840684904,6442.478705745696,0.9949148987262392,-3.4772174597782635e-05,0.00033610227506442216,0.10071856888734022
1.065,5.203228457552583e-07,0.0006180317483920841,-0.007050747186994757,-41.266251802477754,45.709534530353075,4.874377975391135,-1653851.054152066,5084462.549106308,3592432.284999729,-170.07083146909505,-4617.673961999123,6442.643831750087,0.9949166723064521,-3.492722107715014e-05,0.0003376156167144217,0.10070104250920431
1.07,6.348969285309656e-06,0.0006002752067562184,-0.00702890287214768,-41.25326935476312,45.68008243386948,4.878686326222808,-1653851.9038535713,5084439.460733608,3592464.498631551,-169.80977070513038,-4617.675117985257,6442.808897062466,0.9949184466730838,-3.5087469086307596e-05,0.0003391523572228316,0.10068350517421491
1.075,-2.5350192120730834e-06,0.0006079130007433882,-0.007021839610543414,-41.25334390516418,45.66384496122855,4.877133815378996,-1653852.7522500767,5084416.372355258,3592496.7130884766,-169.54883152854563,-4617.6762221535,6442.973873183566,0.9949202152463976,-3.522873151635319e-05,0.0003406464008858897,0.10066602213770076
1.08,-3.97040891428501e-06,0.0006238443289257222,-0.007053237545641785,-41.23222906128923,45.643037787785055,4.867413237026516,-1653853.5993419657,5084393.28397145,3592528.928370126,-169.28792405423965,-4617.677301164359,6443.138786537917,0.9949219817256717,-3.5394007235478554e-05,0.0003421572067648013,0.10064855664525157
1.085,8.840701799305049e-06,0.0006186194851797465,-0.0070409730931423236,-41.22595029798026,45.61733816484778,4.870070165311959,-1653854.4451296285,5084370.195582147,3592561.1444761255,-169.0271410397917,-4617.67842012792,6443.30361326628,0.9949237557812511,-3.55668887160261e-05,0.00034370727465550077,0.10063101302498706
1.09,1.275381655101316e-05,0.0006284899333030952,-0.007064358290187082,-41.217417894106624,45.58994514571211,4.86608797748608,-1653855.2896135827,5084347.1071873745,3592593.3614060483,-168.76644065933823,-4617.6794886472235,6443.468355860845,0.9949255264457882,-3.5706579997730934e-05,0.0003452475707139262,0.10061349986818963
1.095,5.969845625517814e-06,0.0006036269348558224,-0.007043663258859409,-41.20141507288846,45.577348514409344,4.855326001479116,-1653856.1327942533,5084324.018787319,3592625.579159415,-168.5058275288832,-4617.68053359147,6443.6329907312,0.994927302672604,-3.5839041058897215e-05,0.0003468133997590823,0.100595928509287
1.1,8.28114380425158e-06,0.00063547829169108,-0.007042556905949361,-41.19958901486385,45.56463894964102,4.863311923719284,-1653856.9746720716,5084300.930381908,3592657.7977358047,-168.24529985225442,-4617.681630963125,6443.797565221297,0.9949290734040004,-3.5982105269246156e-05,0.0003483156822601979,0.10057840860209961
1.105,-4.0161219855149545e-05,0.000618099210527381,-0.00703490004420455,-41.19522069606,45.52857337368277,4.854604725387784,-1653857.8152473671,5084277.841971137,3592690.0171350166,-167.98481829265535,-4617.682677576685,6443.962119523037,0.9949308435188304,-3.612742845751686e-05,0.00034989777052109425,0.10056089141046681
1.11,-2.6841771998238023e-06,0.0006213381493111584,-0.007035187108353081,-41.17884179432897,45.51573609581946,4.861825837723739,-1653858.65452045,5084254.753555216,3592722.237356601,-167.72441482199113,-4617.683690766923,6444.126514217684,0.9949326114090082,-3.6388867801317376e-05,0.00035142445338646084,0.1005433932765122
1.115,-1.4041879842400047e-05,0.0006188880681826435,-0.007050542649740888,-41.17125082341431,45.500111965300306,4.852715644271897,-1653859.4924917917,5084231.665134274,3592754.4584001317,-167.46412196478806,-4617.684685752045,6444.290898077454,0.994934379061756,-3.655790369092557e-05,0.0003529686126033156,0.100525894363971
1.12,-3.940335800822507e-06,0.0006086443453893224,-0.00701663078292377,-41.163477012301584,45.47392913486775,4.846312712259778,-1653860.3291618077,5084208.576708304,3592786.680265394,-167.203884354582,-4617.685702447214,6444.455206859549,0.9949361502638676,-3.675458779974722e-05,0.0003545038217735746,0.10050835723587993
1.125,9.061303471188668e-06,0.0006359852337313267,-0.007022523808283588,-41.14878327940091,45.45346589776883,4.848385960051768,-1653861.1645308316,5084185.488277282,3592818.9029519246,-166.94372526956593,-4617.686706334882,6444.619405407452,0.9949379126449457,-3.692354191468827e-05,0.0003560160925481215,0.10049090441881943
1.1300000000000001,-2.7071365423485717e-05,0.0006143598212448732,-0.007018559984079659,-41.13476080007554,45.42816019916492,4.851215948101992,-1653861.9985993356,5084162.399841288,3592851.126459304,-166.68367632374773,-4617.687691283016,6444.783546337764,0.9949396761745619,-3.7067030480090636e-05,0.0003575996352503491,0.10047343689848612
1.135,1.892948415061685e-05,0.0006217551121187509,-0.007025087414019464,-41.137066031692406,45.40612679971792,4.849905619744922,-1653862.8313678869,5084139.311400455,3592883.3507871986,-166.42374419524972,-4617.688641781016,6444.9476115676625,0.9949414384155904,-3.729495810625712e-05,0.00035912031232305353,0.10045597924067774
1.1400000000000001,9.361364962357708e-06,0.0006261240266556411,-0.007004018607623735,-41.11837650119446,45.38183568481962,4.843021333463719,-1653863.6628368585,5084116.22295498,3592915.575935201,-166.163844417066,-4617.689548257934,6445.111589270502,0.9949432019845841,-3.741032845560356e-05,0.0003606709360299463,0.10043850527365693
1.145,1.7399920805022847e-06,0.0006058266554103674,-0.007007673202119321,-41.109345836762195,45.363779859280896,4.838634618874514,-1653864.4930066396,5084093.134504933,3592947.8019028543,-165.90406808058742,-4617.690470450387,6445.275472074248,0.9949449599500525,-3.7550576152009766e-05,0.00036223002613110065,0.10042108368938713
1.1500000000000001,-5.219451135168212e-06,0.0006029922414039926,-0.007013388188262961,-41.091906312633,45.34433848660798,4.840276367383583,-1653865.3218777196,5084070.046050275,3592980.028689745,-165.64436384136425,-4617.691393033824,6445.439284276325,0.9949467185431107,-3.77046885526002e-05,0.00036373671549283845,0.10040365299258001
1.155,-2.5408481870115338e-05,0.00060323331082995,-0.007004402851379718,-41.08254993023609,45.32147707780473,4.84045275147427,-1653866.1494505783,5084046.957591026,3593012.256295566,-165.3847796392824,-4617.692306313193,6445.603044038669,0.9949484782647123,-3.787540536257105e-05,0.0003652346070922226,0.1003862080560314
1.16,1.127514582628442e-05,0.0006263911325773148,-0.007002660469377219,-41.081220143362295,45.29042579862327,4.831047516430706,-1653866.975725736,5084023.869127281,3593044.4847199926,-165.1252834729728,-4617.693191662254,6445.766726689646,0.9949502354214304,-3.809639207006664e-05,0.00036672803230799317,0.10036878545671253
1.165,8.59953779164561e-06,0.0006127069497800346,-0.007003382155239573,-41.066164102697115,45.27195308942665,4.829930486953803,-1653867.800703549,5084000.780659174,3593076.713962473,-164.86584172387063,-4617.694051596263,6445.930265516156,0.9949519918158439,-3.823194201442455e-05,0.00036828826450480785,0.10035136712450782
1.17,3.4454640928443682e-06,0.0006252771698670735,-0.00699598981830572,-41.0659626025437,45.250858952598236,4.828572847386064,-1653868.6243844135,5083977.692186768,3593108.9440225023,-164.60650402926277,-4617.6949103975685,6446.093746149855,0.9949537480963015,-3.8370714799171296e-05,0.00036981378750423996,0.1003339469699676
1.175,-7.871189441962417e-07,0.0005863924760238435,-0.006982952620973728,-41.0487016560492,45.22518392379157,4.82352813306851,-1653869.4467686939,5083954.603710161,3593141.1748997304,-164.3472081403068,-4617.695732582203,6446.257144992834,0.9949555022033268,-3.8525453949452865e-05,0.0003713692852462447,0.10031654517560516
1.18,2.2472134569825777e-05,0.0005965552150059147,-0.00698085332040045,-41.0441903293861,45.210746031471864,4.817547905008345,-1653870.2678567993,5083931.515229437,3593173.4065937106,-164.08803407142807,-4617.696557075757,6446.420447203588,0.9949572527703551,-3.86809571179361e-05,0.0003728270012841756,0.10029917578663552
1.185,-9.082073799375357e-06,0.0006099374083300602,-0.006980407351654362,-41.02260204120546,45.183254963238824,4.824695605598745,-1653871.0876491426,5083908.426744576,3593205.6391040417,-163.82890321499806,-4617.697387287507,6446.583685241749,0.9949590024984556,-3.878115169627474e-05,0.0003743158283477467,0.10028181156601233
1.19,-9.194992958755327e-07,0.0005857058525626031,-0.006997984315262627,-41.01679690639588,45.162023522945425,4.813295810452235,-1653871.9061462318,5083885.338255666,3593237.872430397,-163.56993248705206,-4617.698176428587,6446.746856905031,0.9949607517938803,-3.896318868105929e-05,0.0003758300313910591,0.10026444845215146
1.195,9.792828673584576e-06,0.0006126017573374779,-0.006989356772135834,-41.00757911753241,45.139606710611986,4.8028469230759985,-1653872.7233486031,5083862.249762776,3593270.1065723463,-163.31101600846944,-4617.698979666801,6446.909922711592,0.9949625052127379,-3.911886465664046e-05,0.0003772860050293726,0.10024704158117385
1.2,2.1666737393166272e-05,0.000615150147743308,-0.006991727057634186,-40.985933289429376,45.11027312335683,4.810783244103291,-1653873.5392565741,5083839.161265833,3593302.3415293614,-163.05217243812046,-4617.699797541924,6447.07288332527,0.9949642561386698,-3.925462715807498e-05,0.0003788115651352052,0.10022965612679642
1.205,-2.0411897097381642e-05,0.000604926015624188,-0.006992348620316384,-40.97707447045934,45.09310734217808,4.806885559561827,-1653874.3538707392,5083816.072764922,3593334.5773010002,-162.79349356489325,-4617.700567113055,6447.235772324018,0.9949660073510559,-3.936149516600658e-05,0.00038034643907971545,0.10021226473420194
1.21,-1.8045242684401683e-06,0.0006133661853559403,-0.006986644807551582,-40.973936029168634,45.0651684724958,4.807338130166576,-1653875.1671916856,5083792.984260161,3593366.81388692,-162.53488498075365,-4617.701336774457,6447.398595496812,0.9949677584184108,-3.9570469321631724e-05,0.0003818453391980308,0.10019487180568672
1.215,7.4578165233089585e-06,0.0006196464706193498,-0.006969773020638352,-40.95975575257811,45.045050234749986,4.803100165883276,-1653875.9792197628,5083769.895751688,3593399.0512867,-162.27634592196836,-4617.702052963028,6447.561316502627,0.9949695077447133,-3.9735267834376e-05,0.00038336989491336026,0.10017749301552302
1.22,1.566837028339463e-05,0.0006038408899488231,-0.006956914119969518,-40.944796684667566,45.018132276385685,4.8028743624181836,-1653876.7899553922,5083746.807239618,3593431.289499899,-162.01790586710288,-4617.702774703871,6447.72396309792,0.994971252535304,-3.9878583656032596e-05,0.0003849123936131562,0.10016015615241533
1.225,8.032099275410868e-06,0.0006045785597655748,-0.006945543418940339,-40.935832596079024,44.991361880358326,4.802053082024907,-1653877.599399121,5083723.718724001,3593463.5285261055,-161.7595856555019,-4617.703472121868,6447.886519510191,0.9949729938181932,-3.999750620567261e-05,0.00038641763415726653,0.10014285123798569
1.23,-1.7915545404018288e-05,0.0005955930861551815,-0.006940990674341238,-40.924936149317155,44.97619352095101,4.79256523034366,-1653878.4075514786,5083700.630204982,3593495.7683648537,-161.50135734194797,-4617.704135616996,6448.048979710095,0.9949747319501194,-4.0135597148000496e-05,0.0003879227988297838,0.10012557458423886
1.235,7.212836064643681e-06,0.0005805455132540684,-0.006969457854746719,-40.918988797548934,44.952315313215074,4.792551161868093,-1653879.214412866,5083677.541682568,3593528.009015723,-161.24319763260866,-4617.70482994927,6448.2113681609635,0.9949764686465083,-4.033597760061618e-05,0.0003893991179862888,0.10010830925082852
1.24,4.427461311984066e-06,0.0005918112089811525,-0.006961613777737826,-40.90109852281304,44.92684736884223,4.783856494290013,-1653880.0199836404,5083654.453156774,3593560.2504783235,-160.98511209730788,-4617.705487662602,6448.37367187304,0.9949782121816042,-4.047011441534993e-05,0.00039084429310068034,0.10009097305355273
1.245,-2.4243003791059034e-05,0.0006144147164641054,-0.006968133732678272,-40.892352190239514,44.902246395019986,4.787755434052652,-1653880.8242642856,5083631.364627645,3593592.492752178,-160.72714603929174,-4617.7061637667,6448.535869976421,0.9949799534387509,-4.061399100727094e-05,0.0003923167947166508,0.10007365633900628
1.25,6.18932649705988e-07,0.000603861631210178,-0.0069877941552633676,-40.88026711608626,44.866810483214635,4.788343346901961,-1653881.6272553334,5083608.276095256,3593624.735836837,-160.4692730434837,-4617.706791891399,6448.697993674624,0.9949816959980795,-4.083484536569274e-05,0.00039383834774714947,0.10005632340165486
1.2550000000000001,9.319911273733721e-08,0.0005993864589946232,-0.00696176963673209,-40.86478719554674,44.85066727660762,4.776694829317649,-1653882.4289573242,5083585.187559859,3593656.9797318024,-160.2115232674355,-4617.7073670277405,6448.859992443218,0.9949834431831031,-4.099123638269394e-05,0.0003953398673180326,0.10003894150581835
1.26,-9.628286854470004e-06,0.000598498415212923,-0.006936708674590371,-40.85450616526749,44.83274939968621,4.7780952687220966,-1653883.2293707863,5083562.099021469,3593689.2244365667,-159.9538616351757,-4617.707988680598,6449.021913247436,0.9949851835590585,-4.1147790177438426e-05,0.0003968301261445503,0.10002162431522976
1.2650000000000001,2.1993195883309398e-05,0.0006100218012714573,-0.006942823917843029,-40.84948569803619,44.80914837196079,4.776083144492335,-1653884.0284961523,5083539.010480021,3593721.469950802,-159.69628474070157,-4617.7085906846105,6449.1837810583265,0.9949869173657566,-4.1328278874633694e-05,0.0003983157475553526,0.10000436944217861
1.27,3.0022506600083872e-05,0.0005920454933692699,-0.006933813021400495,-40.83203989217857,44.776776386781435,4.775313491945229,-1653884.826333801,5083515.9219356375,3593753.716274152,-159.43877476188408,-4617.709162641793,6449.345558882579,0.9949886523913586,-4.143299721709531e-05,0.00039983793797555736,0.09998709929465095
1.2750000000000001,2.8587511558428517e-05,0.0006041845407964588,-0.006946506569897639,-40.82519606304946,44.7500154932352,4.774854575487804,-1653885.62288425,5083492.833388469,3593785.9634061116,-159.18140478796138,-4617.709704886752,6449.507224811583,0.9949903848817075,-4.1513240359949995e-05,0.00040131742072070723,0.09996985152499853
1.28,-3.1140665494745075e-06,0.000602408413830799,-0.006932268076700855,-40.807482653160974,44.73055754688809,4.769536165178671,-1653886.418148056,5083469.7448386885,3593818.211346158,-158.92411756692775,-4617.710207387709,6449.668793766822,0.9949921202304002,-4.1600099588157465e-05,0.0004028267389748444,0.09995257215031052
1.285,-2.5821247080443683e-05,0.0005935403761276293,-0.006950039362527479,-40.797964282778494,44.71263989766142,4.758263342290637,-1653887.2121257063,5083446.6562863495,3593850.4600938694,-158.66694254604727,-4617.710728323116,6449.830290777989,0.994993851717921,-4.176535769452468e-05,0.00040432371887111357,0.09993532819539389
1.29,-2.0926542232704533e-05,0.0006079148260731491,-0.006928098128866577,-40.78540928505446,44.66731723421847,4.767127729274706,-1653888.004817644,5083423.567731333,3593882.709648843,-158.40983251681925,-4617.711277941445,6449.991698674162,0.9949955873501416,-4.198490193863065e-05,0.0004057929645578312,0.09991804002823913
1.295,-1.6899529548483045e-05,0.0006019298560846095,-0.00694483137939193,-40.779758465323816,44.66637423246735,4.761784902608886,-1653888.7962244153,5083400.479173838,3593914.960010502,-158.1528760875622,-4617.711720144123,6450.152964934043,0.9949973171857962,-4.219583905376584e-05,0.0004072991913834689,0.09990080640289133
1.3,-2.0418892811920745e-05,0.0005970470208718975,-0.00694106923628226,-40.762755027057786,44.63539088487279,4.762438769274867,-1653889.5863464668,5083377.390614041,3593947.2111784755,-157.8959444720398,-4617.712198769809,6450.314224423494,0.994999050905643,-4.2395281269303e-05,0.00040879153450234113,0.09988353111995542
1.305,5.20709446597205e-06,0.0006235061786528971,-0.00689924230586924,-40.73915924777153,44.609320682907864,4.7570901290471665,-1653890.3751842033,5083354.3020519335,3593979.4631524896,-157.639150161301,-4617.712644369504,6450.475381216432,0.9950007833886576,-4.2602254747865736e-05,0.0004102708530388106,0.09986626516913849
1.31,-1.0380125804260596e-06,0.0005878157772300536,-0.0069241106957552605,-40.73490314392291,44.591466532616444,4.7508170579823625,-1653891.1627383442,5083331.213487559,3594011.715932052,-157.3825062124751,-4617.713105376771,6450.636443885496,0.9950025051043863,-4.275204656228828e-05,0.00041182239104222145,0.09984910320366751
1.315,1.6773773763773086e-05,0.0006116070686521179,-0.006912477582720534,-40.729068805570996,44.561214323314296,4.752556875156573,-1653891.9490093845,5083308.124920883,3594043.9695167304,-157.1259099129519,-4617.713564667252,6450.797427317044,0.9950042327645461,-4.290848957368107e-05,0.00041328358724589137,0.099831879358124
1.32,4.212880402158101e-06,0.0006092578881112015,-0.006917776355357173,-40.70611694583947,44.54350730069967,4.757707486623789,-1653892.7339976614,5083285.036352058,3594076.2239060607,-156.8694008461151,-4617.713965441437,6450.958304846939,0.99500595719876,-4.3026551369039094e-05,0.000414808411122334,0.09981468439902834
1.325,2.0341082327313844e-05,0.0005836723933182244,-0.006914324969254839,-40.69591345212412,44.51292193196404,4.742303260064357,-1653893.5177037579,5083261.94778125,3594108.4790997,-156.61303774058032,-4617.7143580713955,6451.119151041989,0.9950076826566026,-4.317527784886443e-05,0.00041632425627826535,0.09979747624237131
1.33,5.333779836911797e-06,0.0006007496446856534,-0.006902784887823059,-40.68044549369843,44.48394563932547,4.742930324040485,-1653894.3001282522,5083238.859208435,3594140.7350971918,-156.35676003997048,-4617.714767877421,6451.279845621861,0.9950094069820459,-4.32774980919076e-05,0.00041778048115626314,0.09978027662702237
1.335,-8.38245469394304e-06,0.0006093014172918474,-0.006939505178025866,-40.669861120335725,44.46063610851369,4.73197562742277,-1653895.0812716752,5083215.77063365,3594172.991897917,-156.10060906973237,-4617.715146151102,6451.44044426347,0.9950111281103527,-4.342129721894942e-05,0.00041927544363968417,0.09976310570174061
1.34,-1.5209110360614559e-05,0.0006082065064038696,-0.0069138783431503025,-40.66282999614329,44.43815942335134,4.742366088821575,-1653895.8611345424,5083192.68205693,3594205.249501361,-155.84453787173578,-4617.715541556307,6451.600933575304,0.9950128580863578,-4.3601387216127494e-05,0.0004207882538473964,0.09974584341706785
1.345,-3.3508991843138905e-08,0.0005750931482412281,-0.006898863767191387,-40.646916798800646,44.41666124744503,4.737455519408374,-1653896.6397172783,5083169.593478415,3594237.50790713,-155.58855644593802,-4617.715864663187,6451.761373751249,0.9950145813716647,-4.379815873485096e-05,0.0004222966407690162,0.09972864485712951
1.35,-2.107540459205845e-05,0.0005872738052516194,-0.0068745950639423304,-40.635591401827625,44.396805748332845,4.729834383937627,-1653897.4170203775,5083146.504898263,3594269.7671148973,-155.3326832218799,-4617.716196163863,6451.9217332270455,0.9950163006513284,-4.394890865145856e-05,0.0004237264421277248,0.09971148360415161
1.355,-8.356606786980502e-06,0.0006139024735930852,-0.006898257141012243,-40.62165508959531,44.35932721162175,4.724312445430974,-1653898.1930443135,5083123.41631642,3594302.0271242484,-155.07689116384367,-4617.716541125061,6452.082007300466,0.9950180135690612,-4.415501179796917e-05,0.0004251813006105184,0.09969438271174659
1.36,5.039264265803137e-06,0.0005784777878000692,-0.006871317642993401,-40.606998976247795,44.335564624087574,4.719567426856518,-1653898.967789607,5083100.327732926,3594334.2879345976,-154.8212262145099,-4617.71685607013,6452.242132351646,0.9950197320601704,-4.4336138322286944e-05,0.0004267055663477624,0.09967722291262655
1.365,6.8063923520931185e-06,0.0005847586686607461,-0.006888171516045092,-40.59496664675064,44.30579450775322,4.717113020981238,-1653899.7412568426,5083077.239147859,3594366.549545346,-154.56566806887085,-4617.717170936486,6452.40216690849,0.9950214435804278,-4.447508561947139e-05,0.00042814505244827977,0.09966013008672162
1.37,2.298820008779225e-06,0.0005903696978500775,-0.006887767093625834,-40.57868004129639,44.288008316795484,4.718985410641546,-1653900.5134465592,5083054.150561288,3594398.81195599,-154.31021861546347,-4617.717457499247,6452.562090771991,0.9950231589968573,-4.461122000081881e-05,0.0004296006008556839,0.0996429953036221
1.375,1.2959960495636422e-05,0.000600366369439134,-0.006864743614034985,-40.57811319103167,44.25932725221261,4.713056545465039,-1653901.2843593084,5083031.061973306,3594431.0751661374,-154.05488106556717,-4617.717734974634,6452.721968234653,0.995024874008816,-4.4759964531063e-05,0.00043106898406982525,0.09962586150100038
1.3800000000000001,1.1213384811196389e-05,0.0006142050440698661,-0.006873574689660969,-40.56625251503597,44.23520164370164,4.71405113435522,-1653902.053995497,5083007.973384027,3594463.339175359,-153.79959433315847,-4617.717976892861,6452.881720327772,0.9950265829806058,-4.488465380383613e-05,0.00043256489238743156,0.0996087849284459
1.385,-1.1806078621205785e-05,0.0005943710098828792,-0.006850359587200366,-40.5384259036035,44.20169157758027,4.715917340488575,-1653902.8223555074,5082984.884793611,3594495.603983145,-153.544409838531,-4617.718189502562,6453.041394161384,0.9950282938406296,-4.5017143470298656e-05,0.000434094789272645,0.09959168635873467
1.3900000000000001,-1.15596554979503e-05,0.0006000384336250278,-0.006877693838783951,-40.5246958545837,44.17897349556632,4.702391140972003,-1653903.589440075,5082961.7962021865,3594527.8695890484,-153.28941716237549,-4617.71838042641,6453.200967133378,0.9950299986444079,-4.520193221080136e-05,0.0004355696187108654,0.09957464553591013
1.395,-1.7238821154683374e-05,0.0006074952651350499,-0.006877919965764146,-40.51209955674124,44.151879447182544,4.699872429759676,-1653904.3552499027,5082938.70760972,3594560.1359925373,-153.0345139081608,-4617.718606323793,6453.360428441703,0.9950317099513144,-4.5387548536095694e-05,0.0004370586044162824,0.09955753668663235
1.4000000000000001,-8.853596190115554e-06,0.0005979763871734782,-0.006854918822578871,-40.50527426702735,44.124819673761856,4.704822043467596,-1653905.1197854797,5082915.619016175,3594592.4031930836,-152.77971697260585,-4617.718811450759,6453.519790188388,0.9950334210092594,-4.558914842917151e-05,0.0004385647259159894,0.09954042725054366
1.405,9.517370073379978e-06,0.0006122579005160495,-0.006868040171807103,-40.48808270423023,44.09183036556652,4.697413820413286,-1653905.8830472971,5082892.53042176,3594624.671190231,-152.52500997999024,-4617.718954651595,6453.679068671037,0.9950351260592665,-4.576749535932906e-05,0.00044004925757490767,0.09952337499405353
1.41,-1.6689308595115849e-06,0.0005939375782620159,-0.00684818979760113,-40.47678885357679,44.081953267428645,4.6931375603493795,-1653906.6450359076,5082869.4418266425,3594656.939983437,-152.2704341680326,-4617.719092150507,6453.838213693349,0.9950368340652997,-4.590371068020803e-05,0.0004415738849719877,0.09950629004569801
1.415,-1.5219364648495323e-05,0.000565750202256096,-0.0068442017297333175,-40.47162832485083,44.05424253933325,4.698244676114522,-1653907.4057518074,5082846.353230781,3594689.209572279,-152.01592576069115,-4617.719252695029,6453.997323118952,0.9950385368574157,-4.606317355938389e-05,0.00044305015825937545,0.09948925446195034
1.42,-1.2010164646910404e-05,0.0005986314885372528,-0.006849239465995492,-40.44596205842786,44.032264444853645,4.695335368668811,-1653908.1651953747,5082823.264634284,3594721.479956451,-151.76150115223717,-4617.719345745844,6454.156345671299,0.995040238393688,-4.6249329164648945e-05,0.0004444529427554706,0.09947222878780686
1.425,1.0761220165713835e-05,0.0006159768016023138,-0.0068469217996597505,-40.434167825366764,43.994179729483825,4.6845970073035375,-1653908.9233672072,5082800.176037275,3594753.7511355625,-151.50723181614015,-4617.719458028116,6454.315298967721,0.9950419408529405,-4.643568408310212e-05,0.00044593832011096237,0.0994551905450651
1.43,-9.709763656450716e-06,0.0005766359144840187,-0.006836535259190753,-40.4165296244796,43.96069050359235,4.675434515140584,-1653909.6802679722,5082777.087439743,3594786.0231090207,-151.25307423299952,-4617.719554946195,6454.474084339252,0.9950436424252962,-4.656970290019048e-05,0.00044747250771975537,0.09943815801098131
1.435,6.278934112600631e-06,0.0006221316026765693,-0.006827279548580088,-40.40461102302874,43.93874386728079,4.680434772597718,-1653910.4358982788,5082753.998841723,3594818.2958760555,-150.99904844741405,-4617.719652767339,6454.63272965843,0.9950453411639101,-4.674485392671073e-05,0.00044890374266454565,0.09942115131271825
1.44,1.6348327123504005e-05,0.0005667859456848647,-0.006847066482020475,-40.392217804670054,43.91655650460692,4.663422884136113,-1653911.1902587158,5082730.910243315,3594850.5694361716,-150.74512631055399,-4617.719710581231,6454.791316706846,0.9950470372602896,-4.689152893836554e-05,0.00045045212827730745,0.09940416758659763
1.445,-8.378967016056348e-06,0.0005741063227031018,-0.006831292747983151,-40.37788646595725,43.89763843858342,4.673859276714268,-1653911.9433497367,5082707.8216445,3594882.843788922,-150.49128210900471,-4617.719815480111,6454.949783353245,0.99504873804451,-4.699942344727206e-05,0.0004518653349569096,0.09938713460403899
1.45,-7.597626019557477e-06,0.0005887144302143059,-0.006831996507322256,-40.364533658408355,43.872952221237185,4.668831234883702,-1653912.695171827,5082684.733045284,3594915.1189339333,-150.2375539608497,-4617.719870835187,6455.108221218611,0.9950504346053722,-4.717063115864404e-05,0.00045329060974939216,0.09937014085838206
1.455,-4.574215652499436e-06,0.0005839760998210705,-0.0068279500073986565,-40.350816212507716,43.839947287366435,4.662758179511765,-1653913.4457255316,5082661.644445801,3594947.394870893,-149.98392789184777,-4617.719922308422,6455.266562785966,0.9950521310322485,-4.7343524993683486e-05,0.0004547524179399314,0.09935314533023101
1.46,1.631694389483183e-05,0.0005871805365404443,-0.00682989140034019,-40.3382985082214,43.8142774837852,4.661338018729875,-1653914.195011399,5082638.555846106,3594979.6715992293,-149.73041906329775,-4617.719955604084,6455.424771632949,0.9950538261675392,-4.750771616703746e-05,0.00045620319022478365,0.09933615983621914
1.465,-1.7521805032203558e-05,0.0005889402100047482,-0.006840082295746411,-40.317325418049435,43.78744167703089,4.666338324102515,-1653914.9430299841,5082615.467246301,3595011.9491183823,-149.47701494846015,-4617.719966805869,6455.5828895864215,0.9950555214916275,-4.762073576110942e-05,0.0004576671217315691,0.09931916945935815
1.47,3.6800467638417287e-06,0.000596233001406298,-0.00679519015194254,-40.310190512287654,43.76000947098651,4.658915776628182,-1653915.689781931,5082592.37864652,3595044.2274279483,-149.22376384501277,-4617.7199451873885,6455.7409367800265,0.9950572190473614,-4.781838250942694e-05,0.00045912702723138315,0.09930215374052379
1.475,-1.4549945572015021e-05,0.0005978906326871095,-0.006826512472095506,-40.29914824147261,43.73023495686575,4.652854571603781,-1653916.4352678123,5082569.290046882,3595076.506527452,-148.97058871746563,-4617.719910077927,6455.898864732476,0.9950589051612896,-4.79650455512676e-05,0.00046061034329918197,0.09928524964304547
1.48,1.4228775879389301e-05,0.000571782234130747,-0.006814912803331615,-40.28511828758325,43.69180738140126,4.658185806693831,-1653917.1794880668,5082546.201447461,3595108.786416291,-148.7175130166385,-4617.719858637406,6456.05667089001,0.9950605987550241,-4.815750588394862e-05,0.00046209325415503497,0.09926826761847014
1.485,-4.258551770711535e-06,0.0005897626224720355,-0.006806802403243158,-40.25537529076991,43.691082522892245,4.655677541721948,-1653917.9224433,5082523.112848483,3595141.0670938543,-148.46458026110784,-4617.7197322040765,6456.214354409321,0.9950622892122303,-4.827188203396353e-05,0.000463518359709878,0.09925131439064933
1.49,1.1580423949460882e-05,0.0005887614881340146,-0.006797153835479099,-40.25391415170398,43.65043668589277,4.642662977590575,-1653918.6641342095,5082500.024249951,3595173.3485598885,-148.2117835597685,-4617.719680529546,6456.372059376748,0.995063977343359,-4.843670032095466e-05,0.00046498360789515465,0.09923438132898016
1.495,1.7768789992519443e-05,0.0005990951690354724,-0.006808699429472491,-40.23279613553152,43.620448525638366,4.643928680689863,-1653919.4045613029,5082476.9356517615,3595205.630813965,-147.95905373295327,-4617.719595327883,6456.529571093938,0.9950656627939947,-4.8561857024964645e-05,0.00046645029605892557,0.09921747222246477
1.5,-1.8832193984911193e-06,0.0005814129566813594,-0.006787029763637705,-40.22427695455734,43.58909208042713,4.646059869115409,-1653920.143725133,5082453.847054061,3595237.9138553645,-147.70647834162435,-4617.7194849988755,6456.686988839837,0.9950673508071256,-4.86741958062794e-05,0.00046794422439773594,0.09920053435700063
1.5050000000000001,8.279319143973193e-06,0.0005822812427974834,-0.006794469605864645,-40.20199582886423,43.55555319577683,4.629619090223223,-1653920.8816263399,5082430.758457055,3595270.197683585,-147.45400438036256,-4617.719317229017,6456.844299210342,0.9950690331748819,-4.883101169296924e-05,0.0004693892940321701,0.09918365039475352
1.51,-8.61041005559162e-06,0.0005898270642576561,-0.006785009489367699,-40.18591336898124,43.535420908298285,4.641296856168685,-1653921.6182655348,5082407.669860791,3595302.4822979644,-147.20167363448527,-4617.719188300717,6457.001452573195,0.995070717098738,-4.896277052689765e-05,0.00047083904252782856,0.09916674788378738
1.5150000000000001,-1.350804680641406e-05,0.0005849721642011697,-0.0068096585648909245,-40.1782343816805,43.507862724024626,4.629160205391838,-1653922.353643395,5082384.581265307,3595334.7676980384,-146.94947047209132,-4617.71900560111,6457.158576998686,0.9950723983774769,-4.913840513492936e-05,0.00047230337636093274,0.09914986889670495
1.52,-3.55322646171081e-07,0.0005835586943427168,-0.0067708610618894376,-40.152322220840006,43.48014649644525,4.624792915312621,-1653923.0877604207,5082361.492670721,3595367.0538834026,-146.6973398003559,-4617.718828700146,6457.315568836381,0.99507408548173,-4.932504918439268e-05,0.0004737544155858748,0.09913292856811932
1.5250000000000001,2.6851687750888887e-05,0.0006057760760359559,-0.006791752382503007,-40.15061911724628,43.453631984753706,4.623367400086197,-1653923.8206172045,5082338.40407699,3595399.3408534853,-146.44537376045855,-4617.718663897347,6457.472464050755,0.9950757626851249,-4.9478577127376016e-05,0.00047520520285960046,0.09911608471132541
1.53,1.1610925127946498e-05,0.0006001278061078423,-0.006765445412746467,-40.12868454536255,43.42411401301993,4.622972278331686,-1653924.5522143021,5082315.315484198,3595431.6286077853,-146.19346525912815,-4617.718452854534,6457.629255980634,0.9950774447539543,-4.956995253335708e-05,0.00047671799898745936,0.09909918881963738
1.5350000000000001,1.9316963527748862e-05,0.0005751427121612586,-0.006787333367701642,-40.11992023833439,43.40951701766739,4.613878298990784,-1653925.2825522448,5082292.226892501,3595463.9171458045,-145.9417118479085,-4617.71822590282,6457.785951833414,0.9950791200220935,-4.9697811572866624e-05,0.00047821297120436595,0.0990823583618085
1.54,7.3428230638670404e-06,0.0005864876709644789,-0.006775458410349216,-40.10345950210942,43.36559089138646,4.623803848930404,-1653926.0116315659,5082269.1383018745,3595496.206467127,-145.69001654873844,-4617.7180247523265,6457.94257714085,0.9950808004551008,-4.980033751591825e-05,0.00047964769403143886,0.09906547341860314
1.545,7.868172374225035e-06,0.0006042486624383867,-0.006762240561247959,-40.08479193103371,43.3404575560508,4.610823016330053,-1653926.739452834,5082246.049712505,3595528.4965712503,-145.43849071014444,-4617.717722685318,6458.099072184735,0.9950824776439109,-4.9935447032538335e-05,0.0004811076755150627,0.09904861800101648
1.55,9.261990132366784e-06,0.0005860839776308152,-0.0067894880548376915,-40.06029797382202,43.312693432048924,4.600577994061546,-1653927.466016764,5082222.961124554,3595560.7874575583,-145.18708124843613,-4617.71745772026,6458.255451050675,0.9950841512512444,-5.007363172611058e-05,0.00048261197272626225,0.09903179543412283
1.555,-6.379520916603862e-06,0.000583170799628053,-0.006758309525283225,-40.04870824837698,43.28480741151396,4.606592935768345,-1653928.1913240235,5082199.872537848,3595593.0791254747,-144.93582253008702,-4617.717224889691,6458.411715433509,0.9950858313388423,-5.020388466189906e-05,0.0004840714229927229,0.09901490505531196
1.56,1.2048400995169074e-05,0.0005533298179911401,-0.006758510374774694,-40.038328857255976,43.25531102752819,4.59817022206701,-1653928.9153752741,5082176.783952452,3595625.3715745127,-144.68467772955023,-4617.716933514762,6458.567899816055,0.9950875034226508,-5.0372290346523054e-05,0.00048551975802032225,0.09899809223047056
1.565,1.2157013721275927e-05,0.0005849707854902096,-0.0067583321108256175,-40.02394837277636,43.230544663267494,4.5978355363275965,-1653929.6381710325,5082153.695368532,3595657.664804153,-144.43362569575382,-4617.716634286904,6458.72395624421,0.9950891753086268,-5.0487467272805735e-05,0.0004868984177360376,0.0989812788589006
1.57,-8.54841768056143e-06,0.0005802648304922717,-0.006756770855550343,-40.01258970091414,43.20220767122925,4.595573306149683,-1653930.3597118128,5082130.606786161,3595689.958813868,-144.1826863419631,-4617.716314400783,6458.8799298046715,0.9950908468258979,-5.061020342778672e-05,0.0004883558181714667,0.09896446589821858
1.575,1.6474112784298586e-06,0.0005817766852381017,-0.006753533531161437,-40.00102517476316,43.17089577541195,4.593691112629599,-1653931.0799981535,5082107.518205457,3595722.253603188,-143.93184999510487,-4617.715967028412,6459.035798149225,0.9950925176739087,-5.078328281945376e-05,0.0004897963887772605,0.09894765681893333
1.58,1.8425182399826107e-07,0.0005829036541062086,-0.006720522133996605,-39.971075099526544,43.147632034119084,4.592104969843174,-1653931.799030587,5082084.429626579,3595754.5491715595,-143.68112335755978,-4617.715584257503,6459.191550398293,0.995094187434648,-5.093136773589652e-05,0.0004912432428751624,0.09893085575213592
1.585,2.4278926123012254e-05,0.0005719807163710616,-0.006756462769637154,-39.962806036163435,43.10797189459401,4.591819678475475,-1653932.516809833,5082061.341049566,3595786.845518523,-143.4305750170711,-4617.715220984899,6459.34723504006,0.995095848744811,-5.1083330779970924e-05,0.0004926925427573309,0.09891413678234172
1.59,9.146851214994277e-06,0.0005834048611978597,-0.006721664442200373,-39.94569834463166,43.086460327595965,4.575610814252946,-1653933.2333366168,5082038.252474538,3595819.1426435392,-143.18013849363254,-4617.714790011026,6459.50277140194,0.9950975186746163,-5.117269572021645e-05,0.0004941206227435242,0.09889732834504308
1.595,-1.1453026471905407e-05,0.0006027751235000116,-0.006732134997304957,-39.927347316588445,43.05136645861052,4.58170561667049,-1653933.9486114646,5082015.163901528,3595851.4405459575,-142.92980066779626,-4617.714413937452,6459.658195929854,0.9950991797001875,-5.1302486928403256e-05,0.0004955733860812125,0.09888060646602075
1.6,8.886653185290577e-06,0.0005894879609661488,-0.006739359316943517,-39.91346310061879,43.02051734793718,4.5818906895068725,-1653934.6626350163,5081992.075330554,3595883.739225239,-142.67961998189955,-4617.713976108192,6459.813516771375,0.9951008430038322,-5.148832675596263e-05,0.0004970692439440593,0.09886385853375101
1.605,1.1221773070036182e-05,0.0005603202025808728,-0.006720133353763351,-39.89052911208846,42.988527790476354,4.56371176861439,-1653935.375407969,5081968.986761862,3595916.0386808584,-142.42956121017423,-4617.713500470541,6459.968731022489,0.9951025078277808,-5.1620291414946506e-05,0.0004985370727163657,0.0988470925773457
1.61,-1.0048772477041312e-05,0.000583138768569426,-0.006714166349365038,-39.879326559897635,42.96738729653954,4.562030752979625,-1653936.0869309807,5081945.898195423,3595948.3389121615,-142.17964342202905,-4617.713075227808,6460.123790046173,0.9951041676535761,-5.173921501765995e-05,0.0004999329186033901,0.09883037442312054
1.615,-4.000790987889014e-06,0.0005744969414967136,-0.00668409040716234,-39.859837034476556,42.93881944285841,4.554872081398108,-1653936.7972046288,5081922.809631144,3595980.6399185727,-141.92981577010497,-4617.712636402835,6460.278774501298,0.9951058256911429,-5.191668508778088e-05,0.0005013802768055643,0.09881367110893348
1.62,-8.670974387475338e-06,0.0005909704399695938,-0.006682809456039384,-39.84386947292408,42.909456898028374,4.55551652981119,-1653937.5062294723,5081899.721069039,3596012.941699623,-141.68012166245754,-4617.712205384161,6460.433645605479,0.995107476029339,-5.2076936663841786e-05,0.0005028076339966383,0.0987970425822272
1.625,-2.5386187222418135e-05,0.0005978960000856819,-0.006726135678282709,-39.828025136958395,42.88001364255002,4.557980331591194,-1653938.2140061683,5081876.63250917,3596045.2442547847,-141.43055670211024,-4617.711742371521,6460.58841905315,0.9951091257499092,-5.225287378343748e-05,0.0005042748199659864,0.09878041721816509
1.6300000000000001,-1.0619700491017804e-05,0.0005830884322745569,-0.006695578634849247,-39.80975005341491,42.85270122080145,4.5480823009328395,-1653938.920535367,5081853.543951714,3596077.547583581,-141.18112281510417,-4617.7112397435185,6460.743099504091,0.9951107858772544,-5.247215943541348e-05,0.0005057551015136848,0.0987636840605033
1.635,5.460352214436805e-06,0.0005718887521517961,-0.006683743915947395,-39.788497491630444,42.81362228263173,4.545131852795025,-1653939.6258177022,5081830.455396725,3596109.851685487,-140.931811247755,-4617.710756122353,6460.897663050384,0.9951124381981747,-5.2651014586143994e-05,0.000507202194981882,0.09874702687720727
1.6400000000000001,1.960141240324707e-06,0.0005718433680901079,-0.006697239061268865,-39.78459739006549,42.78250910302923,4.5500375786517315,-1653940.3298538935,5081807.366844227,3596142.1565598543,-140.68266524350238,-4617.710243070118,6461.052083679094,0.9951140873333995,-5.278708622662864e-05,0.000508625397155942,0.09873039908936061
1.645,-6.278863177750246e-06,0.0005687244146493494,-0.006668969942457959,-39.76214399569333,42.76385110189439,4.54604725073352,-1653941.0326445634,5081784.278294488,3596174.4622060675,-140.4336027564577,-4617.709652532538,6461.206401635689,0.9951157395187384,-5.2931871583328024e-05,0.0005100476205568781,0.09871373770512432
1.6500000000000001,-2.837641708352555e-06,0.0005788655098285719,-0.006677863192949193,-39.7418037659621,42.73504407442174,4.541137589363146,-1653941.734190254,5081761.189747641,3596206.7686237157,-140.1846734942733,-4617.7090861415445,6461.3606577268965,0.9951173844507782,-5.309634807720383e-05,0.0005114600549987899,0.09869714663166244
1.655,2.2014514351617257e-05,0.0005641157282475829,-0.006653624887149431,-39.72311847688438,42.703504288643074,4.536277713791703,-1653942.43449165,5081738.101203626,3596239.075812376,-139.93588483786473,-4617.708519802937,6461.514806375718,0.9951190312856245,-5.32547771221753e-05,0.0005128985661639148,0.09868053340020937
1.6600000000000001,-9.686500560107207e-06,0.0005734200695973108,-0.006683188208990691,-39.714428389625105,42.667601613951206,4.534449776608197,-1653943.1335494476,5081715.012662468,3596271.38377148,-139.6872342890257,-4617.707943637061,6461.668835280421,0.9951206718846904,-5.334770914832715e-05,0.0005143065170017194,0.09866398041124658
1.665,7.810335721528417e-06,0.0005633965373670416,-0.006659720217520235,-39.69114651466287,42.65057327331491,4.532244435360784,-1653943.831364255,5081691.924124321,3596303.692500386,-139.43868860072686,-4617.70731520318,6461.822727054124,0.9951223194810707,-5.3521840017593466e-05,0.0005157297917379568,0.09864735388650044
1.67,3.007297665888155e-06,0.0005713721789520727,-0.006665379415192275,-39.6880007374224,42.61282782839312,4.521727341783541,-1653944.5279366744,5081668.835589259,3596336.0019986266,-139.19027922086195,-4617.7067093016285,6461.976569202685,0.9951239610262467,-5.3649939895947314e-05,0.000517132447909707,0.09863078569670085
1.675,5.100323998939765e-06,0.0005771028675390379,-0.00666184688603966,-39.66379036765699,42.58687682285701,4.5319796365937135,-1653945.2232672272,5081645.747057311,3596368.312265645,-138.9419418915479,-4617.706069813323,6462.130237920483,0.9951256036778103,-5.379196273077943e-05,0.0005185537607394835,0.09861420340547096
1.68,9.899716715496393e-06,0.0005733128887986503,-0.0066688450104180445,-39.64936548754475,42.54874281511292,4.52605317707238,-1653945.9173565244,5081622.658528674,3596400.62330088,-138.6937769274819,-4617.705385071225,6462.283856315606,0.9951272451731108,-5.393018672906312e-05,0.000519989846791992,0.09859762987146153
1.685,-5.429739872688004e-07,0.0005695139515196089,-0.0066575996481939015,-39.630994960639015,42.51939636852619,4.512428323188504,-1653946.6102053197,5081599.570003535,3596432.9351038253,-138.44574125923836,-4617.7046707619975,6462.43732168122,0.9951288881206084,-5.405554558615089e-05,0.0005214176859996213,0.09858103889408214
1.69,-2.1127494557227554e-05,0.0005767980401353058,-0.006642347587080487,-39.603476478892944,42.49027870238205,4.510907476622558,-1653947.3018142406,5081576.481481894,3596465.247673758,-138.1978270643009,-4617.703985518101,6462.590651402251,0.9951305280220276,-5.420593306929095e-05,0.0005228335018723809,0.09856447587973408
1.695,4.434588165408014e-06,0.0005859318411028267,-0.006666554840123308,-39.580719355020356,42.459590942233675,4.51078244795605,-1653947.9921840348,5081553.392963679,3596497.5610101055,-137.95009057176378,-4617.7033008401495,6462.743887647877,0.9951321638757704,-5.4409306194698035e-05,0.0005242623689575973,0.09854795080833907
1.7,-2.7863077078198303e-05,0.0005700818087813098,-0.006665520245127694,-39.575993011205576,42.429781977707094,4.512500071759041,-1653948.6813155485,5081530.3044489315,3596529.8751123846,-137.7025149638497,-4617.702597885144,6462.8970240523295,0.9951338054074388,-5.455136719900337e-05,0.0005257202536788376,0.09853136545117566
1.705,-4.999760609993217e-06,0.0005682509342610997,-0.006661395133152892,-39.560817705480666,42.39443914195911,4.4977456778029286,-1653949.3692093862,5081507.21593785,3596562.1899800817,-137.45502006786313,-4617.701834607264,6463.050054770904,0.9951354464222293,-5.476987376125516e-05,0.000527130750303978,0.09851478268495309
1.71,-1.9739385449077463e-05,0.0005435709234976852,-0.0066371318632921575,-39.53475941462692,42.3644033032103,4.488953968928574,-1653950.0558660398,5081484.127430553,3596594.5056125177,-137.20764146863394,-4617.701084512615,6463.202919672363,0.995137086148424,-5.493104370989614e-05,0.0005285423233628974,0.09849821012392566
1.715,1.8674033024221197e-06,0.0006088366874453054,-0.006642533859064983,-39.52980530721946,42.334329609288595,4.488882368330301,-1653950.7412862093,5081461.038926945,3596626.822008982,-136.96042627314495,-4617.70035851624,6463.35566581625,0.9951387196535731,-5.512277410890906e-05,0.0005298888700551077,0.0984816979215544
1.72,2.2198293359451196e-05,0.0005559413414045795,-0.00664219827934145,-39.50390055811214,42.299053170051096,4.493160983029256,-1653951.4254705023,5081437.950427101,3596659.1391688967,-136.71329091948604,-4617.699579111137,6463.508300299247,0.9951403541289557,-5.527682597664988e-05,0.0005314031067608025,0.0984651722148868
1.725,1.0895071654912633e-05,0.0005743167677331684,-0.006636526315898571,-39.47990337713801,42.273673560768735,4.481169641172163,-1653952.1084195906,5081414.861931253,3596691.4570917254,-136.46634440064454,-4617.698759847617,6463.660831146913,0.9951419883182806,-5.5367276286994714e-05,0.0005327907523432099,0.09844864729602976
1.73,7.368124183740706e-06,0.0005557288978436,-0.006613111376877584,-39.48203576298173,42.246785420399874,4.481181553847109,-1653952.7901343005,5081391.773439394,3596723.775776932,-136.21953960159712,-4617.697983762036,6463.813251509945,0.995143620809415,-5.5490362393013905e-05,0.0005342213319913811,0.0984321364733872
1.735,1.2781801308417327e-06,0.000576725286927172,-0.006609048464842839,-39.4504765314991,42.212864904269686,4.483371751145277,-1653953.4706150927,5081368.684951568,3596756.09522398,-135.97277724677616,-4617.697146755345,6463.965567677914,0.995145247287972,-5.5617617650630666e-05,0.000535604802827409,0.09841568388390505
1.74,-3.0521080146573576e-05,0.0005571757421788514,-0.006608200423924644,-39.43338772852411,42.16958355164564,4.473183906029962,-1653954.1498625958,5081345.596467969,3596788.4154323605,-135.7262239770797,-4617.696292767535,6464.117784375464,0.9951468724640987,-5.576518433483374e-05,0.000537039011857971,0.09839924138054598
1.745,-1.0272894414599647e-05,0.0005616486170955706,-0.006630003263890613,-39.41818020885475,42.14899306913908,4.473104663185477,-1653954.8278776945,5081322.507988689,3596820.736401364,-135.47981551295658,-4617.695419447366,6464.269817222551,0.9951484971797827,-5.5987053050220105e-05,0.0005384167616305861,0.09838280100536188
1.75,-1.7860974351496792e-05,0.000550630896160711,-0.006605044208775817,-39.39231142221726,42.115868382261496,4.4718298743148575,-1653955.5046610234,5081299.419513801,3596853.0581303705,-135.2335160178424,-4617.694535466589,6464.421785171839,0.9951501269803914,-5.615967635360571e-05,0.000539810616322967,0.09836630633250544
1.7550000000000001,-1.6571948071600853e-06,0.0005437581102587839,-0.006600105630172561,-39.37335057221533,42.085837232297095,4.463654410253917,-1653956.1802132986,5081276.331043366,3596885.3806189396,-134.98739415842658,-4617.693638385049,6464.5736425764735,0.9951517503826817,-5.6348434724104415e-05,0.0005411751976263338,0.09834987373934036
1.76,-8.443101185776377e-06,0.0005572097967358255,-0.006579906297642232,-39.361144994302606,42.05900341965876,4.4569453615823305,-1653956.8545352954,5081253.2425774,3596917.7038664888,-134.7414044974204,-4617.692748415967,6464.72537708366,0.9951533723092768,-5.649518350455159e-05,0.0005425266649138207,0.09833345338482775
1.7650000000000001,-2.418831478020389e-05,0.00055505666022784,-0.006608213980663868,-39.34892604015531,42.018237912464585,4.454603753145373,-1653957.5276275887,5081230.154115896,3596950.0278724325,-134.49551287826858,-4617.691853351932,6464.877000324418,0.9951549889789969,-5.6662094293871526e-05,0.0005439099329298158,0.09831708326432724
1.77,8.940026171269977e-06,0.0005579500519441543,-0.0066078678522450175,-39.323705604804275,41.99268014890158,4.455364027032053,-1653958.1994907453,5081207.065659002,3596982.3526361026,-134.24974972914973,-4617.690903867261,6465.028467871515,0.9951566123348659,-5.686768665415521e-05,0.0005452839699669784,0.09830064271230261
1.7750000000000001,1.2513745412599947e-05,0.0005903200351747282,-0.006594944151567385,-39.30551998742043,41.96487081892532,4.452282926692636,-1653958.8701254956,5081183.977206869,3597014.6781569244,-134.00415041961915,-4617.689949354866,6465.179860737906,0.9951582353329186,-5.699156986374419e-05,0.0005466733466912425,0.09828420294881769
1.78,7.92949654597868e-06,0.0005501133511902839,-0.006588254048290319,-39.28476390904132,41.92715953543984,4.44968876498645,-1653959.5395325779,5081160.888759532,3597047.0044344594,-133.7586824116223,-4617.6889853715,6465.331153353311,0.9951598548386519,-5.7114497999758716e-05,0.0005481441363456767,0.09826779530168246
1.7850000000000001,-9.199493184601413e-06,0.0005607939701836181,-0.006572538777387134,-39.27535614596231,41.90368520935431,4.4521285300460285,-1653960.2077127225,5081137.800317088,3597079.331468115,-133.51337547882878,-4617.68799236737,6465.482308903891,0.9951614724830053,-5.723894454790784e-05,0.0005495137704008355,0.09825140428399036
1.79,3.512921196759309e-06,0.0005813049283627766,-0.00657701854228499,-39.244012481760265,41.87221087775275,4.431200684888449,-1653960.8746665607,5081114.711879707,3597111.6592573626,-133.268159774573,-4617.686960207733,6465.633390140671,0.9951630859788706,-5.74086082322037e-05,0.0005509057715381015,0.09823505235960198
1.795,1.6095897197992648e-05,0.0005652566953996232,-0.006589472092993911,-39.234154525032956,41.82912142773916,4.435462922785816,-1653961.540394755,5081091.623447288,3597143.9878016305,-133.02311801206852,-4617.686007244243,6465.784316874431,0.9951647002775905,-5.755168799450128e-05,0.0005523519232652864,0.098218689242779
1.8,4.355213569513678e-06,0.0005540802101947935,-0.006562479803521569,-39.200403673495686,41.799621727777115,4.435748617565739,-1653962.2048980668,5081068.535019861,3597176.31710016,-132.77820669083656,-4617.684963594863,6465.935095008886,0.9951663173866048,-5.765953901308226e-05,0.0005537612361710715,0.09820229510074797
1.805,-1.6467645785937753e-05,0.000574727512142187,-0.006560531421607476,-39.20622225658014,41.7597118922249,4.4245166104822795,-1653962.8681773434,5081045.4465976395,3597208.6471523675,-132.53350390257748,-4617.683924995425,6466.085787954949,0.9951679276117218,-5.7793818588735554e-05,0.0005551398642577622,0.09818596810439136
1.81,-1.07252852815959e-06,0.0005560388397446079,-0.00657104397221904,-39.174433995000506,41.728516980906086,4.433321888020205,-1653963.5302331918,5081022.358180746,3597240.97795756,-132.2888355050211,-4617.682832111435,6466.236289199285,0.9951695370571494,-5.798496923746434e-05,0.0005565647500256899,0.09816964595475268
1.815,2.466238615636601e-06,0.0005945501719720073,-0.006558428869454305,-39.159510607288745,41.701860877721984,4.417594205309367,-1653964.1910662325,5080999.26976941,3597273.3095150846,-132.0443807519799,-4617.681702780017,6466.386720552754,0.9951711488407226,-5.813324596757605e-05,0.0005579469164580054,0.09815329760533024
1.82,4.165698370400254e-06,0.0005566810936874155,-0.006564008262583475,-39.137403464517895,41.672057972923575,4.420768645267732,-1653964.850677245,5080976.181363628,3597305.6418244317,-131.80002425048846,-4617.680609738023,6466.5370182430015,0.9951727572054482,-5.828215092373777e-05,0.0005594257663432732,0.0981369806041998
