t_s,gyro_x_radps,gyro_y_radps,gyro_z_radps,accel_x_mps2,accel_y_mps2,accel_z_mps2,ins_pos_ecef_x_m,ins_pos_ecef_y_m,ins_pos_ecef_z_m,ins_vel_ecef_x_mps,ins_vel_ecef_y_mps,ins_vel_ecef_z_mps,ins_quat_w,ins_quat_x,ins_quat_y,ins_quat_z
0.0,7.848721844844466e-06,0.0006442674551334469,-0.007302131968042177,-41.75021941625089,48.22175481219015,5.152925981667506,-1658763.5840503734,5105149.374697655,3596773.925093057,-226.82286500164605,-4617.160284474699,6406.276788851849,0.9945218953682734,0.0,0.0,0.10452846326765354
0.005,9.058212073471579e-06,0.0006608746274827061,-0.00732403950509709,-41.7593478943727,48.23709090068559,5.13414101929626,-1658764.7174933879,5105126.288887633,3596805.956911866,-226.55434074557618,-4617.163724498682,6406.45073472778,0.9945238034028503,-1.488464032266346e-07,1.6038962635012136e-06,0.10451030792478878
0.01,1.212100996594486e-05,0.0006408586696197751,-0.007326721315707338,-41.76640032509376,48.22174205416,5.146745047380506,-1658765.8495935616,5105103.203060169,3596837.9896004293,-226.28572881259961,-4617.167261305829,6406.624690490652,0.994525716826194,-2.9902477893020444e-07,3.2493990993189058e-06,0.10449209807778366
0.015,6.159494075674377e-06,0.0006372657830179805,-0.007306579070514554,-41.765857986873186,48.22818788320017,5.139271088852527,-1658766.9803507212,5105080.117215252,3596870.0231587086,-226.01713498029963,-4617.170705487957,6406.798621311801,0.9945276306140914,-4.3635932456275933e-07,4.845936065376786e-06,0.10447388152762291
0.02,9.521253312580634e-06,0.0006472469672987007,-0.0072992234509168235,-41.77066692856106,48.2252636368132,5.141016861479627,-1658768.1097648775,5105057.031352984,3596902.057586677,-225.7485275262026,-4617.174201579231,6406.972565959978,0.9945295388058873,-5.875774496875377e-07,6.431982932515168e-06,0.10445571502236475
0.025,-8.009001140578287e-06,0.0006388696262016785,-0.007343372436540643,-41.77101503445361,48.22197710799451,5.142158947778009,-1658769.237835975,5105033.945473278,3596934.092884361,-225.47991149139125,-4617.177680813869,6407.146507584785,0.9945314447426179,-7.33043513533524e-07,8.043724152207107e-06,0.10443756677040296
0.03,9.830644001939775e-07,0.0006510877280657816,-0.00732187584945935,-41.77768480229262,48.203300640051886,5.137561148710036,-1658770.3645640204,5105010.859576191,3596966.129051747,-225.21130671441654,-4617.181153934129,6407.3204468716585,0.9945333618707657,-9.199091653525458e-07,9.630059422615587e-06,0.10441930871466511
0.035,-1.5081343952972009e-05,0.00066210251139768,-0.007326308269270728,-41.78236883852224,48.205568601228784,5.137241342567842,-1658771.4899490518,5104987.773661817,3596998.1660886137,-224.94270579867745,-4617.184595495989,6407.494299957857,0.994535273050197,-1.0876065407723545e-06,1.1249120377174513e-05,0.10440110407100395
0.04,-7.789393246593896e-06,0.0006542204191181125,-0.007315970553963505,-41.7895088769805,48.19992383564936,5.1395615020302445,-1658772.613991028,5104964.687730228,3597030.2039947775,-224.6740847072908,-4617.1880404506,6407.668165430317,0.9945371850500356,-1.2981204811953516e-06,1.2891374937329208e-05,0.1043828883719866
0.045,3.1117253497822516e-06,0.0006444824440683436,-0.007314861254412587,-41.790138900096295,48.20316362931095,5.1407293292033005,-1658773.7366898656,5104941.601781488,3597062.2427702323,-224.40545034043822,-4617.191455291337,6407.842016475374,0.9945390940165925,-1.4884469087961366e-06,1.4515934829201842e-05,0.10436469834061511
0.05,-3.412207245422924e-06,0.0006675316986481098,-0.007289907542151118,-41.79189479530491,48.19220238727666,5.134845678525853,-1658774.8580455265,5104918.515815655,3597094.282415002,-224.1368140473139,-4617.194878244328,6408.0158914885,0.9945410023588486,-1.6491285720374049e-06,1.6119126957986034e-05,0.10434651103180664
0.055,-3.517480294299788e-05,0.0006630074598279618,-0.007317167531792544,-41.804656564175495,48.189028364793806,5.136570192330873,-1658775.9780580313,5104895.4298327025,3597126.322929011,-223.86818777847878,-4617.198302395176,6408.189712200511,0.9945429038564293,-1.8320427985410394e-06,1.7777925882104184e-05,0.10432838573183366
0.06,6.468995896993476e-06,0.0006365263583284286,-0.007298601780818369,-41.802915169214664,48.1852653152422,5.148715156251544,-1658777.096727295,5104872.3438327145,3597158.3643120965,-223.59951777713337,-4617.20169276368,6408.363521977974,0.9945448121297202,-2.092751380054984e-06,1.941719145051866e-05,0.10431019262014922
0.065,-1.933987986918231e-05,0.0006366768860360795,-0.0072942825277348255,-41.805527856053665,48.18931540788064,5.126529294035486,-1658778.2140532979,5104849.257815891,3597190.406564302,-223.3308833408962,-4617.205036914977,6408.537360051386,0.9945467152284304,-2.2430118774097634e-06,2.1001475185944078e-05,0.10429204563266734
0.07,3.6591494031603535e-06,0.0006393252373169452,-0.007327800898936202,-41.81854904884768,48.187684013768575,5.13558663144366,-1658779.330036023,5104826.171782101,3597222.449685598,-223.062206694297,-4617.208478984652,6408.71115835766,0.9945486168673847,-2.4574817258647324e-06,2.2579404054511673e-05,0.10427390935082088
0.075,-1.8872744690779297e-06,0.0006594363481591231,-0.007314992908303915,-41.81629718631694,48.17307122414499,5.13935452719614,-1658780.4446752688,5104803.08573125,3597254.4936759244,-222.7934917052249,-4617.211861394436,6408.884972248309,0.9945505269092771,-2.6154597184571953e-06,2.4169912991568342e-05,0.10425568969343517
0.08,-1.737193659899481e-06,0.0006509027314051858,-0.007306823278584342,-41.817043587668024,48.17240496226325,5.137445102481342,-1658781.5579710575,5104779.999663579,3597286.538535224,-222.52482371288076,-4617.215206906423,6409.058747474109,0.994552433275839,-2.7924691776176986e-06,2.5808980178287532e-05,0.10423750184653527
0.085,-1.0252243573376066e-05,0.0006355491864406948,-0.00731606117961381,-41.83061308164414,48.16945575561072,5.137964769135584,-1658782.669923508,5104756.913579153,3597318.5842633974,-222.2561564873978,-4617.218563503032,6409.23252213314,0.9945543371790908,-2.9668811434029613e-06,2.742686870020348e-05,0.10421933427739696
0.09,2.6837706936688676e-05,0.0006396086458455647,-0.00729714783681169,-41.8274371160455,48.170303686305715,5.137990717612544,-1658783.780532499,5104733.8274780195,3597350.6308604097,-221.98743995696398,-4617.221889945412,6409.4062827286925,0.9945562431553914,-3.158465100574816e-06,2.9004363725445496e-05,0.10420114370488003
0.095,-6.148176386181911e-06,0.000660024621628473,-0.007289196763715914,-41.828683117106834,48.16611388008025,5.133583875764724,-1658784.8897979525,5104710.741360216,3597382.6783262608,-221.71874143239782,-4617.225231416967,6409.5800576621605,0.9945581438703315,-3.2588850814527817e-06,3.060161433017346e-05,0.10418300012056608
0.1,-2.3694973420537373e-05,0.0006539660537148047,-0.007321178892976356,-41.837435441183025,48.157995719333876,5.138905480427146,-1658785.997719918,5104687.655225676,3597414.7266609306,-221.45004468043362,-4617.228584719359,6409.753810315012,0.9945600421792659,-3.446637894187478e-06,3.2241035756159e-05,0.10416487627321076
0.105,-2.192919884307553e-05,0.0006631928812158322,-0.0072988748309292875,-41.83623127911643,48.159188371996976,5.1435036784569625,-1658787.104298369,5104664.569074497,3597446.7758643203,-221.1813357699264,-4617.231887065086,6409.9275454973,0.9945619484826654,-3.676443916660506e-06,3.3860823471972216e-05,0.10414667287192829
0.11,-8.507722186390799e-07,0.0006402379322798385,-0.007309328286293052,-41.846027838797944,48.15527032893134,5.136509165842853,-1658788.2095333117,5104641.482906821,3597478.825936453,-220.91264127811775,-4617.235183138049,6410.10130751425,0.9945638486432035,-3.90425997776057e-06,3.5504012759096776e-05,0.10412852489227462
0.115,-1.0236455627526908e-05,0.0006466417210931267,-0.007287033245456758,-41.84763152875021,48.14555100270738,5.140380284746321,-1658789.313424681,5104618.396722652,3597510.876877306,-220.64390648765726,-4617.238484257882,6410.275033766794,0.994565751192975,-4.073691700198217e-06,3.70956136900375e-05,0.1041103508844051
0.12,-1.882484932053891e-05,0.0006670946635400698,-0.007305473652615982,-41.842050005049295,48.13959315280962,5.142512349000455,-1658790.4159724286,5104595.310522064,3597542.9286867357,-220.37519258865808,-4617.241751260557,6410.448738152355,0.9945676476055336,-4.268124803562445e-06,3.870069444119101e-05,0.10409223227712336
0.125,-1.8113047653358877e-05,0.0006615961574400963,-0.0073077276747946845,-41.85542880111536,48.13533640191521,5.1345348384692775,-1658791.5171767166,5104572.224305149,3597574.981364674,-220.10652259179673,-4617.245014384836,6410.622437202658,0.9945695484811816,-4.489236517025571e-06,4.0354394607054606e-05,0.10407406778495883
0.13,-7.209450602670885e-07,0.0006765149478742771,-0.007313629422670256,-41.85605607872684,48.1281873184226,5.131766339811268,-1658792.6170375121,5104549.138071918,3597607.0349110006,-219.83779563271068,-4617.248278270428,6410.7960933081595,0.9945714496092567,-4.70714798598331e-06,4.199460831745967e-05,0.10405589765331642
0.135,-9.913627716812794e-06,0.0006526840666685931,-0.007312886537693386,-41.85408996822252,48.11976365996606,5.136564028512758,-1658793.715554703,5104526.051822367,3597639.089325534,-219.56908071639498,-4617.251542088106,6410.969720244472,0.9945733519362411,-4.885696821563956e-06,4.3676440828956055e-05,0.10403771281034782
0.14,-2.613419807757646e-06,0.000641523339341889,-0.007300924333897244,-41.85052403156554,48.12112982880159,5.132932229025569,-1658794.8127284085,5104502.965556566,3597671.1446081754,-219.30040148447188,-4617.254778426637,6411.143336246731,0.9945752537372891,-5.080904291449284e-06,4.529662847211314e-05,0.10401952978074365
0.145,-1.90756642935585e-05,0.000633118565375893,-0.007307341038913853,-41.86535610474431,48.119563533608094,5.13923705653019,-1658795.9085587533,5104479.879274504,3597703.200758913,-219.03173637002507,-4617.258046179937,6411.3169587980965,0.9945771520944502,-5.25505655572111e-06,4.6890964204430125e-05,0.10400137645875142
0.15,1.0340133099663064e-05,0.0006430148348341851,-0.007335959746821257,-41.864299076967335,48.119391242300374,5.13622295669433,-1658797.003045647,5104456.792976235,3597735.2577777803,-218.76302115575163,-4617.261261534975,6411.49058800059,0.9945790517865879,-5.467956730808915e-06,4.8460121606099275e-05,0.10398320714908653
0.155,-1.3176062181518683e-05,0.0006538575621554587,-0.007328998436268864,-41.86488968487706,48.10182937776755,5.129837828716927,-1658798.096188981,5104433.706661838,3597767.315664793,-218.4943124264634,-4617.264497204756,6411.664217066908,0.994580958581833,-5.610292146127562e-06,5.0061532028310697e-05,0.10396496664170074
0.16,1.2214669968112135e-05,0.0006451009687811883,-0.007317453201231694,-41.86252610659158,48.0993224228609,5.134815895153783,-1658799.187988838,5104410.620331286,3597799.3744197474,-218.22563032689476,-4617.267723386218,6411.837764687099,0.9945828632292335,-5.8139167478628295e-06,5.168379030539253e-05,0.10394674341086428
0.165,-6.475821886942158e-06,0.0006343570555682803,-0.0072796430138802794,-41.8686669639424,48.10729923932909,5.129210383055963,-1658800.2784453514,5104387.533984639,3597831.4340424743,-217.9569750904802,-4617.270935739896,6412.011326205953,0.9945847645419176,-5.952131339772321e-06,5.329087404834685e-05,0.10392854884849108
0.17,-4.172446987757203e-06,0.0006377441375475541,-0.007300394410707612,-41.87187009706747,48.08174867483188,5.124774616026926,-1658801.367558479,5104364.447621844,3597863.4945330583,-217.6882759371936,-4617.274182348276,6412.184907260138,0.9945866556981862,-6.134022590182876e-06,5.486638781582967e-05,0.1039104482674915
0.17500000000000002,-8.829914872483824e-06,0.0006307521700980365,-0.00728997443359596,-41.87766554193298,48.08354321751491,5.133349811326636,-1658802.4553281907,5104341.361242917,3597895.5558912703,-217.41960877016717,-4617.277388128559,6412.358377605537,0.9945885519118728,-6.311069303091069e-06,5.645092147486684e-05,0.10389229605369116
0.18,1.0267523761841124e-05,0.000633198163617991,-0.007318313402203426,-41.876800137046246,48.06672076351051,5.127113168494847,-1658803.5417545345,5104318.2748480495,3597927.61811692,-217.15092868336384,-4617.28055887063,6412.531882329815,0.99459044508676,-6.497879175056145e-06,5.801686026485734e-05,0.103874169714815
0.185,-4.469749396724297e-06,0.0006664156017097126,-0.007299580818818166,-41.87973677102248,48.07653547268085,5.136142857680669,-1658804.6268375574,5104295.188437342,3597959.6812099013,-216.88228051587248,-4617.28372420407,6412.705310199175,0.9945923452866983,-6.637843019075219e-06,5.959383980591188e-05,0.1038559728740654
0.19,-1.939752485393932e-05,0.0006454275813007743,-0.007303566917041798,-41.88291074553466,48.05417121067777,5.136320233874559,-1658805.710577304,5104272.10201084,3597991.745170199,-216.61361815652307,-4617.2868769146835,6412.878808719478,0.994594240283015,-6.82307259104807e-06,6.124958777730454e-05,0.10383782257822048
0.195,-2.1810016662870065e-05,0.000653129681062045,-0.007317911130014152,-41.88475131851189,48.06301257561771,5.130591366521694,-1658806.7929738194,5104249.0155687025,3598023.8099977765,-216.3449880072159,-4617.289977929433,6413.05222241793,0.994596135982979,-7.039972093970807e-06,6.284927408035037e-05,0.10381966233876473
0.2,6.05354794819158e-08,0.0006458591518627163,-0.0072991262730915645,-41.88885766142775,48.05683046117669,5.121859880108018,-1658807.874027118,5104225.929110946,3598055.8756924886,-216.07633142115262,-4617.293124545425,6413.225662468202,0.9945980350698571,-7.264871559401399e-06,6.446748514621859e-05,0.10380146639785141
0.20500000000000002,5.176251989143589e-06,0.0006354289613872609,-0.0073017359222486335,-41.89176935405538,48.045511145122845,5.11626036138081,-1658808.9537371013,5104202.84263741,3598087.942254289,-215.80766187954012,-4617.296289645024,6413.3990576224705,0.9945999289489038,-7.433500245413104e-06,6.607329388488956e-05,0.10378331712707278
0.21,8.037038477429899e-06,0.0006347888461093767,-0.007281309950098942,-41.89221476696856,48.036647602113625,5.12033814032157,-1658810.0321037513,5104179.756148057,3598120.009682925,-215.53899811701908,-4617.2994515817545,6413.5723968127495,0.9946018231730088,-7.5867029323925775e-06,6.765449520119368e-05,0.10376516133191407
0.215,-8.9522778219974e-06,0.0006658586812556322,-0.007318925886538381,-41.8970383671651,48.031606261759755,5.134147228081421,-1658811.1091271443,5104156.669642971,3598152.077978215,-215.27035907971376,-4617.302582901476,6413.745719166509,0.9946037117655117,-7.732622749253015e-06,6.923484735763418e-05,0.10374705629081472
0.22,-1.8724881353901698e-05,0.000640418980126558,-0.0072969532628440045,-41.903989273685255,48.03717393176132,5.12538075768813,-1658812.1848073686,5104133.5831224015,3598184.147140172,-215.00173065081438,-4617.305644921764,6413.919063631414,0.994605609774756,-7.928851676817198e-06,7.088804771816634e-05,0.10372885768485039
0.225,-1.423892642034948e-05,0.0006611688150169504,-0.0073018259236026315,-41.89681039976719,48.02474197635416,5.124824265121902,-1658813.2591443327,5104110.496586423,3598216.2171688518,-214.7330550314752,-4617.308746502299,6414.092408345436,0.9946075017556854,-8.142779345616346e-06,7.247545806425867e-05,0.1037107136814589
0.23,5.573370592571853e-06,0.0006528570550900586,-0.007302461236505526,-41.907019093535276,48.01290076349921,5.12888912804851,-1658814.3321380673,5104087.410034949,3598248.288064161,-214.46443881590966,-4617.31184331453,6414.2657152932825,0.9946093946624679,-8.350933433940417e-06,7.411562624440355e-05,0.10369255752605874
0.23500000000000001,-1.3513197648889765e-05,0.0006418823194588658,-0.007292402030598855,-41.88862583708024,48.007809455221285,5.112189352545748,-1658815.4037886872,5104064.323468134,3598280.3598259115,-214.19580905536122,-4617.314882636511,6414.438984950429,0.9946112874017514,-8.507669226223152e-06,7.574026296948124e-05,0.10367439975260435
0.24,-1.4443535462194978e-05,0.0006457808103646243,-0.007295394605493814,-41.901510049325616,47.99530199863118,5.118458541710886,-1658816.4740963466,5104041.236885875,3598312.432453902,-213.92725479566073,-4617.318020666055,6414.612211082831,0.9946131772018609,-8.709017903637732e-06,7.733266392200293e-05,0.10365626696071939
0.245,-1.1769056147720149e-05,0.0006266619950601901,-0.007291363582291103,-41.9100429664292,47.989770322527,5.125001447751664,-1658817.5430611814,5104018.15028811,3598344.505947932,-213.65867903999467,-4617.321085483699,6414.78540107898,0.9946150674434013,-8.91369072984889e-06,7.893451742115735e-05,0.10363812669305833
0.25,1.4221712824159482e-05,0.0006398390320250434,-0.00729173083407622,-41.90492688277801,47.99222087239041,5.122905138127416,-1658818.6106831012,5103995.063675144,3598376.580307904,-213.39008887212927,-4617.324100907095,6414.958587723586,0.9946169563111688,-9.106758968542311e-06,8.048952427433181e-05,0.10361999641386882
0.255,-2.4222593543977534e-06,0.0006546526234868333,-0.007315222598048094,-41.89461014441817,47.97968310848901,5.116753214136036,-1658819.6769621226,5103971.977047023,3598408.6555338507,-213.12151971296385,-4617.327147354033,6415.131790881367,0.9946188449390159,-9.238613640579406e-06,8.208402926166229e-05,0.10360186518127036
0.26,1.827442393590023e-05,0.0006425164831816776,-0.007297578422627935,-41.900386816015676,47.974874315566986,5.122468362302825,-1658820.7418984645,5103948.890403612,3598440.731625685,-212.85301701400215,-4617.330217264059,6415.304942878606,0.9946207393137233,-9.415695940476643e-06,8.371105750550046e-05,0.10358367550355718
0.265,1.9330598321929094e-06,0.000647646212398645,-0.007282825497779742,-41.89846842742096,47.9646292264877,5.112036587017434,-1658821.8054922817,5103925.803744948,3598472.8085832787,-212.58450987288876,-4617.333248372291,6415.478094529277,0.9946226287878674,-9.538168403544616e-06,8.531326859072842e-05,0.1035655296601224
0.27,1.1986764399425161e-05,0.000656408229454296,-0.007323021689173682,-41.905645063510484,47.95896028488723,5.122594206127321,-1658822.867743611,5103902.717071057,3598504.886406478,-212.3160219406529,-4617.336307740693,6415.651185188457,0.9946245141078206,-9.702599600982278e-06,8.692400435601073e-05,0.10354742046936218
0.275,-2.054353187081589e-05,0.0006378055323051664,-0.007304525544088463,-41.90780356164176,47.95271772917226,5.1203206862103725,-1658823.9286524937,5103879.6303820275,3598536.9650951517,-212.0475310499762,-4617.3393043384485,6415.824284322786,0.99462640949746,-9.844308588305732e-06,8.855912899739275e-05,0.1035292112911204
0.28,-1.6544488549621485e-06,0.0006422726343383451,-0.007307496047130063,-41.910479878948934,47.939684171371226,5.110590201886764,-1658824.988218932,5103856.543678022,3598569.044649258,-211.77904429123103,-4617.342297796419,6415.997358064615,0.9946282997680591,-1.0062087400340174e-05,9.013957763967281e-05,0.10351104807754136
0.28500000000000003,1.4927211976178468e-05,0.000647527380940755,-0.007274897321289568,-41.903954389450185,47.93905504614521,5.112881732873859,-1658826.046442948,5103833.456959025,3598601.1250685467,-211.51056214689507,-4617.345300960374,6416.170357525705,0.9946301904724593,-1.0234053823114016e-05,9.173602201412698e-05,0.10349287743842972
0.29,9.517609565431294e-06,0.0006680704488429875,-0.00729570548200694,-41.90915172488477,47.921908590953215,5.11708294182489,-1658827.1033246499,5103810.370224988,3598633.2063528765,-211.24211858140768,-4617.348313708968,6416.343374502589,0.9946320724086755,-1.0366140787210945e-05,9.334982372541995e-05,0.10347478781991724
0.295,-7.290970557482327e-07,0.0006288554346113795,-0.007287869680776708,-41.907924751853955,47.916151267817206,5.112824641702629,-1658828.1588641806,5103787.283476038,3598665.2885021563,-210.97369369792398,-4617.351266582987,6416.5163373134465,0.9946339593901232,-1.051699823805312e-05,9.501330745808906e-05,0.1034566464263698
0.3,1.2722251875035573e-05,0.0006514314602622539,-0.007297173855615533,-41.91274688463595,47.908105578769174,5.110584850324909,-1658829.2130616265,5103764.196712291,3598697.3715161844,-210.7052846436773,-4617.354232186521,6416.689274012623,0.9946358440208051,-1.068319049539706e-05,9.65766296780216e-05,0.10343852448602017
0.305,6.686900187053553e-06,0.0006591425122294516,-0.007274333281784545,-41.92439435480178,47.91375465877262,5.111555125412614,-1658830.2659170157,5103741.109933748,3598729.455394809,-210.43687108169837,-4617.357184906538,6416.8621757662795,0.9946377307192742,-1.0821775088044808e-05,9.819956739714047e-05,0.10342037937150932
0.31,-4.08083624183353e-06,0.0006701750381635542,-0.007296679084655544,-41.9182651147757,47.89524741020262,5.120202054253355,-1658831.3174301975,5103718.023140462,3598761.5401380016,-210.16840161946757,-4617.360129291374,6417.035101318267,0.9946396111775793,-1.0977355240798908e-05,9.984011951352761e-05,0.10340229101892395
0.315,6.578379349732639e-06,0.0006560910315167398,-0.007294921194232617,-41.91808312336006,47.88688687793451,5.1230385238581695,-1658832.3676012259,5103694.936332598,3598793.625745728,-209.90000969788008,-4617.363016493661,6417.207989270666,0.9946414970766427,-1.1162567981483277e-05,0.00010150532092999535,0.10338414706908342
0.32,2.040749460038685e-06,0.0006507947845387465,-0.0072828091979273875,-41.91336684293201,47.88432800748585,5.10411488658637,-1658833.416430357,5103671.849510356,3598825.71221785,-209.6316427594311,-4617.365880368623,6417.380859491787,0.9946433821916018,-1.1317634869417326e-05,0.00010313825600261387,0.10336600745342983
0.325,3.8126102808314265e-06,0.0006504880377583574,-0.007292534856657604,-41.908274443710106,47.87134850876019,5.104310915987796,-1658834.4639176703,5103648.762673582,3598857.7995541953,-209.36328262149146,-4617.36882928276,6417.553678529254,0.994645263844953,-1.1482613309637418e-05,0.00010475684909917838,0.10334789792229034
0.33,-1.7823810942720522e-05,0.0006332094711643527,-0.007273132581359419,-41.916398524704405,47.86517098042449,5.118328221638069,-1658835.5100633132,5103625.675822097,3598889.8877545362,-209.0949744627636,-4617.371764831333,6417.726457871581,0.9946471476784583,-1.16431091065583e-05,0.00010637513691615087,0.10332976417216592
0.335,-7.635171748233057e-06,0.0006570054494362353,-0.0072804811849791215,-41.91821776514154,47.852808317736226,5.109441465790255,-1658836.5548674103,5103602.5889561325,3598921.976818812,-208.82666444928168,-4617.374620859069,6417.899252513635,0.994649026171561,-1.1852937775893002e-05,0.00010794487085414361,0.10331167863982303
0.34,-1.0995290241995225e-05,0.0006380333167114502,-0.007284214754583562,-41.91034776285813,47.85284307933198,5.116997369309342,-1658837.5983299783,5103579.502075864,3598954.06674689,-208.55836268495608,-4617.377486519727,6418.071978647047,0.9946509062247677,-1.204357913039102e-05,0.00010957640766845578,0.10329357479636203
0.34500000000000003,1.506229197810884e-05,0.0006630666448055409,-0.007279258251241349,-41.91270984415479,47.84090360040889,5.103498885491857,-1658838.6404511626,5103556.415181285,3598986.1575386887,-208.29011103383928,-4617.38034525628,6418.244740815533,0.9946527869149163,-1.223767761740344e-05,0.0001111599000146003,0.1032754616358889
0.35000000000000003,1.0078158342413063e-05,0.000678673835930763,-0.007284361568483585,-41.9175125064214,47.82410132750236,5.109697048962317,-1658839.6812310864,5103533.328272342,3599018.2491940977,-208.02185852536616,-4617.383231650641,6418.4174228514885,0.9946546659869336,-1.2373442427248927e-05,0.00011281236892122033,0.10325736075790946
0.355,-1.0693624000696633e-05,0.0006382194980791991,-0.007276127670967336,-41.917306057152835,47.81582801948605,5.1060714969216425,-1658840.7206698037,5103510.241349134,3599050.3417128,-207.75362835821508,-4617.386051872461,6418.590058050508,0.99465654603935,-1.2525631295107018e-05,0.00011450236042474537,0.10323924715624654
0.36,1.7829068376014596e-05,0.0006391242836374622,-0.007292207932510473,-41.92178737555961,47.815868418863886,5.105148206028047,-1658841.7587674116,5103487.154411818,3599082.43509459,-207.48541482112824,-4617.388874445609,6418.762657817785,0.9946584236453521,-1.2719028586533041e-05,0.0001160863955600441,0.10322115400206727
0.365,5.420240567983776e-06,0.0006489231010071008,-0.0072844865538253456,-41.91624093095789,47.809485401378765,5.09355549346018,-1658842.7955239117,5103464.067460386,3599114.529339383,-207.21718521596836,-4617.391698106846,6418.935259403942,0.9946603050691709,-1.2841738182388794e-05,0.00011768004038973496,0.10320302081916906
0.37,1.3222166104552164e-06,0.0006471580816653456,-0.007272511486819034,-41.92061039546417,47.80322485872047,5.10529645379623,-1658843.8309393309,5103440.980494713,3599146.62444707,-206.94898247585303,-4617.394570868339,6419.107815478387,0.9946621841647275,-1.2997830092330184e-05,0.00011929485009333904,0.10318490680544809
0.375,-1.1854992863205732e-05,0.000645359036407661,-0.007268784009784784,-41.91141155039244,47.78544655206523,5.097188459399816,-1658844.8650137668,5103417.893514835,3599178.720417567,-206.680791897048,-4617.397380612002,6419.280383340831,0.9946640598396148,-1.3163653491784026e-05,0.00012090421401572197,0.10316682253643662
0.38,-4.868466659175291e-06,0.0006580373988279975,-0.007303200284369829,-41.91385707335603,47.77214516724523,5.095465187523472,-1658845.897747421,5103394.806520865,3599210.8172507063,-206.41266973825026,-4617.400207184968,6419.452872281665,0.9946659342220089,-1.3361778997409482e-05,0.0001225057057792843,0.10314874750608136
0.385,-5.219838604595738e-07,0.0006323148967213127,-0.007268430439196732,-41.91229719559255,47.774037774460574,5.099404872806433,-1658846.929140505,5103371.719512818,3599242.914946158,-206.14456389240465,-4617.403011685123,6419.625308403331,0.9946678171430838,-1.354581128301596e-05,0.0001241405248187878,0.10313058685692568
0.39,4.510131831752699e-07,0.0006398936012735471,-0.00728410714078935,-41.916844113372846,47.74903862800481,5.093127359107169,-1658847.9591930944,5103348.632490752,3599275.01350386,-205.87647190506536,-4617.405814778253,6419.797772633774,0.9946696907751117,-1.3712392564984888e-05,0.00012571250227000073,0.10311251263392303
0.395,-1.1942973493415789e-05,0.0006607628473835172,-0.007276710471990525,-41.91153917861447,47.74575364428974,5.0996161540168945,-1658848.98790528,5103325.545454758,3599307.112923597,-205.6084022799693,-4617.408582683334,6419.970122064344,0.9946715681142985,-1.3878512890780397e-05,0.0001273035757315913,0.10309439939312416
0.4,2.0993435586690097e-06,0.0006621242456612349,-0.007254128798237135,-41.91531626697742,47.737691593459296,5.096661598995618,-1658850.0152772255,5103302.458404965,3599339.2132051247,-205.340375954258,-4617.411334997206,6420.142488877569,0.9946734432078832,-1.4080829479274676e-05,0.00012894335014515933,0.10307630451426064
0.405,1.9210950492487056e-05,0.0006418056630847465,-0.007266746209199196,-41.90876023734072,47.73295422289583,5.086559309657942,-1658851.0413090375,5103279.371341429,3599371.3143483954,-205.0723488593157,-4617.41407931619,6420.314819569808,0.9946753121515565,-1.4248570803821188e-05,0.00013059012925290892,0.1030582657500121
0.41000000000000003,2.0289087828891945e-06,0.0006496132243023607,-0.007256172275160542,-41.905093857086385,47.714121647916684,5.09359219996039,-1658852.0660007899,5103256.284264049,3599403.4163532355,-204.8043520245757,-4617.4168726474445,6420.48711640262,0.9946771840229416,-1.4368530015781869e-05,0.00013219079061800923,0.10304019557110507
0.41500000000000004,7.84273822115904e-06,0.0006460424712145736,-0.007277310904838989,-41.91494606114593,47.70960158410084,5.095142731782113,-1658853.0893527202,5103233.197172844,3599435.5192194455,-204.5364201481739,-4617.419609288452,6420.659367657582,0.9946790528368844,-1.4533223422270157e-05,0.00013380644122419985,0.10302215165749713
0.42,-1.4986310877341275e-05,0.000622819622541701,-0.007293017226524393,-41.91257983169907,47.693281835557414,5.093403501703541,-1658854.1113649197,5103210.110068032,3599467.622946876,-204.2684596115943,-4617.422315739885,6420.831604580478,0.9946809267657122,-1.4682546992572437e-05,0.00013541470901764455,0.10300405514242252
0.425,-3.5987041648488213e-06,0.00063903694923577,-0.007257458072129763,-41.90722445492804,47.68592303273374,5.095705310337553,-1658855.1320374247,5103187.022949734,3599499.727535339,-204.00054238791932,-4617.425003160857,6421.003780493478,0.9946828044136509,-1.4882664805481682e-05,0.00013695934916613164,0.10298591954455548
0.43,9.364374227196271e-06,0.0006688163698503888,-0.007272868821478695,-41.91324305164282,47.67807773018396,5.081563371953037,-1658856.1513704574,5103163.93581802,3599531.8329846542,-203.73267072189356,-4617.427682314281,6421.175945576808,0.9946846725697044,-1.5058628187353766e-05,0.00013854725023985928,0.10296787233305946
0.435,-1.575081691617658e-05,0.0006477762382786448,-0.007271560403270702,-41.90662072508698,47.66267306956495,5.087085263232216,-1658857.169364068,5103140.8486728305,3599563.9392946237,-203.46477347701065,-4617.43039343552,6421.348042204148,0.9946865443521631,-1.5210027272458775e-05,0.00014021254047196278,0.10294978675961837
0.44,6.775500869459395e-06,0.0006491367443905603,-0.00729291961960158,-41.90344214298802,47.663929243874826,5.094462949754137,-1658858.1860183673,5103117.761514178,3599596.0464649927,-203.19694623981718,-4617.433067726151,6421.5201054533245,0.9946884154728172,-1.5418465057929568e-05,0.0001418190458587508,0.10293170441513876
0.445,-1.7208508300086177e-05,0.000638682158719827,-0.007256801776033538,-41.899411817053675,47.64534347957837,5.094998477282293,-1658859.2013335968,5103094.674342186,3599628.154495769,-202.92914563665235,-4617.435728914109,6421.692205160476,0.9946902917579094,-1.557124384078125e-05,0.000143434730254726,0.10291356891382059
0.45,-1.2031149463417919e-05,0.0006421786583605308,-0.0072503193463144275,-41.901102521886784,47.63497653406611,5.0886607975908476,-1658860.215309968,5103071.587156964,3599660.2633868884,-202.6614028301695,-4617.43836035108,6421.864242444227,0.9946921584216792,-1.578096152294204e-05,0.0001450182476217582,0.10289552320237273
0.455,1.4188770400441983e-05,0.0006442062248774017,-0.007259553837047158,-41.90237599477569,47.6242960599288,5.0774276752388845,-1658861.227947646,5103048.499958572,3599692.373138061,-202.39366839890602,-4617.440996142586,6422.0362265225185,0.9946940230872091,-1.5978701589505945e-05,0.00014661179186603005,0.10287749357486499
0.46,1.413582613914584e-05,0.0006479992362072693,-0.0072428593281955245,-41.896602597204435,47.61205309394983,5.093370403767645,-1658862.2392466634,5103025.412746943,3599724.483748984,-202.12593849940632,-4617.443655711072,6422.2081427859575,0.9946958897983055,-1.611176451895564e-05,0.00014821712131263671,0.10285944093982496
0.465,6.9800876377535445e-06,0.0006237303996996141,-0.00726371311628913,-41.901927433036,47.61513720415054,5.08746613801751,-1658863.2492072156,5103002.325522196,3599756.5952195083,-201.85828238510987,-4617.446242844785,6422.380066881115,0.9946977518855459,-1.6245928283199635e-05,0.00014983186999999987,0.10284142978547943
0.47000000000000003,4.813019308557911e-06,0.0006411483370075317,-0.007258319919685982,-41.89978192081292,47.597603048376804,5.077333193754812,-1658864.2578294077,5102979.238284449,3599788.7075496516,-201.5905944626654,-4617.448855849624,6422.551990487741,0.9946996190135836,-1.6391654741351023e-05,0.00015138442763201315,0.10282336674268384
0.47500000000000003,-2.0692779900104097e-05,0.0006504734925155748,-0.007266027300981196,-41.89831274302664,47.576620196631936,5.080670153635425,-1658865.2651132445,5102956.15103361,3599820.820739189,-201.3229402553824,-4617.451479660873,6422.723824454905,0.9947014844183184,-1.654724553544013e-05,0.000152979742410627,0.10280531707738218
0.48,2.0182030528061e-05,0.0006499805768162533,-0.0072446383948045435,-41.905930013949366,47.57586952611857,5.080929863688417,-1658866.271058946,5102933.063769782,3599852.9347877298,-201.05534027502554,-4617.454051886574,6422.895591883131,0.9947033514688632,-1.6768662601470893e-05,0.0001545916908552038,0.10278724822093561
0.485,1.7361234241375025e-06,0.0006319543965865415,-0.007262269487810474,-41.89973938066413,47.55997018771151,5.0750229379267795,-1658867.2756665791,5102909.976493121,3599885.0496951058,-200.78771309782914,-4617.456612254767,6423.067358565101,0.9947052126951569,-1.6888298954646508e-05,0.00015621291790613806,0.10276923250366517
0.49,-1.4206552228683103e-05,0.0006521633466196379,-0.007261160506276218,-41.89561922663765,47.55559631069813,5.077775874995788,-1658868.2789362124,5102886.889203643,3599917.165461146,-200.5201401835052,-4617.45917877377,6423.239057481978,0.9947070781279023,-1.704918144583727e-05,0.00015778457814301993,0.1027511729159517
0.495,-2.9600359891296006e-05,0.0006259767293529693,-0.007251017017937044,-41.89544226069881,47.53042519873158,5.071772618787249,-1658869.280868069,5102863.801901348,3599949.2820856846,-200.2526024091522,-4617.461739456269,6423.410757856662,0.9947089429367256,-1.7254900458005534e-05,0.00015940239801729897,0.10273311605731561
0.5,1.0696556172113983e-05,0.0006297815210086385,-0.007271226800854759,-41.89792594453218,47.52337492671335,5.0839819765004375,-1658870.2814623467,5102840.714586317,3599981.399568448,-199.98510869176306,-4617.4642731343565,6423.582347479352,0.99471080482027,-1.749217073559423e-05,0.0001609511444857597,0.10271508439642128
0.505,1.4756394912290728e-06,0.0006467607875860096,-0.0072419204160854974,-41.8792794383286,47.50838005640624,5.074486552974364,-1658871.2807192123,5102817.627258774,3600013.517909188,-199.71763750788645,-4617.466744016646,6423.753948517888,0.9947126715634333,-1.7630216718569596e-05,0.00016251969943826265,0.10269700242782176
0.51,1.2824978304224483e-05,0.0006545557924233682,-0.007234789182279405,-41.88384218083335,47.507448930837874,5.06832264347599,-1658872.2786389813,5102794.539918756,3600045.6371077737,-199.45027011057553,-4617.469262925306,6423.925485965244,0.9947145304451906,-1.779554049466127e-05,0.0001641281119563452,0.10267899330674057
0.515,-1.0610717233446061e-05,0.0006553739284789837,-0.007251201655145014,-41.890221231685175,47.49489872190069,5.0735991233058355,-1658873.2752218596,5102771.452566097,3600077.757164005,-199.18288126360034,-4617.471801120153,6424.0970065410775,0.9947163871653215,-1.7934638916306734e-05,0.0001657588225956685,0.1026610018806153
0.52,-9.62479648929637e-07,0.000621127647691437,-0.007254719818912644,-41.88027261408449,47.488406564376895,5.071449388764543,-1658874.2704678094,5102748.365200886,3600109.878077755,-198.91549861789642,-4617.474283168932,6424.268493556324,0.9947182477675479,-1.8132233786071152e-05,0.0001673855521476859,0.1026429696158398
0.525,-4.130517931009633e-06,0.0006503917775338689,-0.007234677433803222,-41.87579745780738,47.4738585474793,5.076617053650501,-1658875.2643769928,5102725.2778232135,3600141.999848901,-198.64817476119754,-4617.4767858224495,6424.439964638853,0.9947201089577473,-1.8297049077105282e-05,0.00016892959379313847,0.1026249285656161
0.53,4.554721762475228e-06,0.0006373131774120351,-0.007249066349733377,-41.87899477543751,47.45633027130415,5.064673095940386,-1658876.2569497027,5102702.190433122,3600174.12247732,-198.3809091929746,-4617.479250569497,6424.611402917936,0.9947219646645037,-1.8477242249258996e-05,0.00017054559754634257,0.10260693732287632
0.535,-9.867745351570344e-06,0.0006259178718500729,-0.0072544536698854545,-41.87931498723126,47.45199681049401,5.065115635382684,-1658877.2481861033,5102679.10303069,3600206.245962682,-198.11365101455237,-4617.481722217506,6424.782741959072,0.9947238237396167,-1.8632488165747365e-05,0.00017213130456612558,0.10258891026071251
0.54,-8.708075705587815e-06,0.0006379793373991533,-0.007231324306563363,-41.86932842688065,47.43206610448732,5.063039042825475,-1658878.2380862434,5102656.015615914,3600238.3703047177,-197.84640503165974,-4617.4841880614495,6424.954072384797,0.9947256838712379,-1.8820679743518294e-05,0.0001736849743601934,0.10257086977407241
0.545,1.851231626845741e-05,0.0006535099396024572,-0.007256009778156447,-41.87515525550989,47.42557462958357,5.062185557674553,-1658879.2266503621,5102632.928188835,3600270.49550323,-197.57924249274745,-4617.486643570332,6425.125332556271,0.9947275377380528,-1.900907027659097e-05,0.00017526893717988317,0.10255288677090428
0.55,1.1936978615881011e-05,0.0006270430925045204,-0.0072658456395244915,-41.86450026563858,47.40525515103215,5.06267630644578,-1658880.2138786428,5102609.840749521,3600302.6215579794,-197.3120697240795,-4617.489082114112,6425.296567050948,0.9947293975994639,-1.913376120639321e-05,0.00017689849938717735,0.10253484233287603
0.555,-5.871946081618343e-07,0.0006506887765923377,-0.007259891474744218,-41.86819335432334,47.39112573031937,5.06064004999252,-1658881.1997712855,5102586.753298065,3600334.7484687404,-197.04498740452215,-4617.491500633825,6425.467737485275,0.9947312596632403,-1.9268023748877013e-05,0.00017846055718504143,0.10251677340492174
0.56,4.799642663030454e-07,0.0006083312429410917,-0.007221168402680855,-41.867917050120234,47.38388573450113,5.054395512076995,-1658882.184328546,5102563.665834579,3600366.876235209,-196.7779167831202,-4617.493893780512,6425.638849782596,0.9947331198593746,-1.9439489293111332e-05,0.00018007820811864837,0.10249871925434098
0.5650000000000001,4.626062615386794e-06,0.0006371103616905442,-0.007238676476348189,-41.860835148485876,47.37405290737787,5.054551493648281,-1658883.1675504823,5102540.578359089,3600399.004857142,-196.51085772815492,-4617.496302054617,6425.809923485608,0.9947349698235658,-1.9597429569909326e-05,0.0001815907982267515,0.10248076136930512
0.5700000000000001,7.614273144075878e-07,0.0006366021847062211,-0.0072551414740029945,-41.867240069614766,47.35522950429594,5.054332921108853,-1658884.1494372606,5102517.490871563,3600431.13433438,-196.24385359212667,-4617.498708281957,6425.980971648091,0.9947368239331056,-1.9752440380979062e-05,0.00018317601864514208,0.10246275990751526
0.5750000000000001,-3.1161359170932025e-05,0.0006231695326187606,-0.007223371135383639,-41.85381003199553,47.344793343971425,5.054221891439869,-1658885.129989044,5102494.4033721285,3600463.2646666723,-195.97685983153193,-4617.5010656226095,6426.151945390495,0.9947386819312799,-1.9916939290073503e-05,0.00018475898448098703,0.10244471746777993
0.58,-1.8326231918321157e-05,0.0006234371082525466,-0.00722436387540007,-41.855238075410604,47.33390596559916,5.059691773474161,-1658886.1092060693,5102471.31586088,3600495.395853775,-195.7099502029628,-4617.5034336465515,6426.322895802567,0.9947405314690199,-2.015737033371083e-05,0.00018630037108909302,0.10242675401761081
0.585,-8.82199018896498e-06,0.0006427835975150448,-0.007252652029909418,-41.844542310474424,47.31166258348497,5.0491082172478094,-1658887.08708861,5102448.228337899,3600527.527895575,-195.44306609540044,-4617.505758783374,6426.493824059734,0.9947423809346341,-2.036595129709307e-05,0.0001878457096578308,0.10240878805899763
0.59,-2.4278893468983028e-06,0.0006279249397013591,-0.0072430135026723625,-41.84611916820683,47.30960506755909,5.050897644579419,-1658888.0636369297,5102425.140803244,3600559.6607917584,-195.17626183126592,-4617.508103231746,6426.664649420808,0.9947442373057876,-2.055586298445731e-05,0.00018944159195096423,0.1023907517125775
0.595,-4.37850749670242e-06,0.0006381551319853739,-0.007234515203605407,-41.842638845769955,47.294207725845745,5.052701717251033,-1658889.0388512386,5102402.053256888,3600591.7945420775,-194.90946170605181,-4617.510439188387,6426.835478095786,0.9947460908879625,-2.072606538988861e-05,0.00019100216000813737,0.10237273929969098
0.6,1.4533687419746093e-05,0.0006377140435970154,-0.007218514800261999,-41.84579205454984,47.28296783234569,5.055162671632562,-1658890.0127316744,5102378.965698924,3600623.9291464235,-194.642712583741,-4617.512746456956,6427.006260237341,0.9947479419618968,-2.090373288698404e-05,0.0001925876703267693,0.10235474798754689
0.605,1.0312550517475635e-05,0.0006374373739373491,-0.007215064877873887,-41.842856019203246,47.26070063119802,5.05266057682724,-1658890.9852784008,5102355.878129512,3600656.0646045962,-194.37597804460884,-4617.515018310164,6427.1770089563715,0.9947497886155307,-2.103424763736333e-05,0.0001941769238711685,0.10233679642357286
0.61,2.0068686828977074e-06,0.0006295228013953304,-0.007233086210658958,-41.83639624968915,47.260477458551456,5.044164446008128,-1658891.9564915935,5102332.790548812,3600688.2009162954,-194.10929899436795,-4617.517261552354,6427.347670747934,0.9947516340601098,-2.1175187360096082e-05,0.0001957644095464814,0.1023188534076144
0.615,-3.201196813098126e-06,0.0006492711595700666,-0.007214865509200851,-41.83365222320727,47.24519796814568,5.052345558446989,-1658892.9263714498,5102309.702956764,3600720.3380812756,-193.8426435319914,-4617.519557506832,6427.518321274952,0.9947534837909735,-2.133476659702863e-05,0.000197330087048938,0.10230086554563411
0.62,-2.2462902646130207e-05,0.0006434050100426096,-0.007223211562069461,-41.826687595595594,47.23000287982076,5.053794915274486,-1658893.894918168,5102286.615353375,3600752.476099436,-193.57604372084162,-4617.521798369391,6427.688942943725,0.9947553285248402,-2.151233937676221e-05,0.0001989435453545821,0.1022829229643073
0.625,-3.0763242476006417e-06,0.0006282267787170906,-0.007228652283170139,-41.81860115824122,47.21194316106961,5.0418559222611385,-1658894.8621320515,5102263.52773883,3600784.6149705956,-193.30950966819012,-4617.52401951131,6427.859520816156,0.9947571750681287,-2.1736317994555157e-05,0.0002005374893283291,0.10226495960359214
0.63,9.266710109762645e-06,0.0006385591483252109,-0.007217408655608187,-41.82239428145412,47.20873236000901,5.040695204455627,-1658895.8280134117,5102240.440113108,3600816.7546944143,-193.04303441332453,-4617.526269478986,6428.030006764156,0.9947590226839255,-2.190820648483159e-05,0.00020209864272334807,0.10224698266986007
0.635,-9.144924888888521e-06,0.0006314852921175462,-0.007223714590109918,-41.81357064467411,47.18827989440152,5.0334262553860025,-1658896.7925623767,5102217.352476145,3600848.8952706344,-192.77655164143638,-4617.528515360405,6428.200481191472,0.9947608670942484,-2.2052034559161056e-05,0.00020368864730756206,0.10222903365747892
0.64,1.4812831128228065e-05,0.0006387465004111131,-0.007218463281017149,-41.80805299248214,47.175871195987334,5.036948496524549,-1658897.7557791092,5102194.264827938,3600881.0366990063,-192.51014129602373,-4617.530767659026,6428.370867666114,0.9947627127921286,-2.2239845888644437e-05,0.00020525635397977248,0.10221106893905178
0.645,-2.3536228436505422e-06,0.0006274861708905333,-0.007232828567135407,-41.80634802303948,47.15854845079328,5.038486266191166,-1658898.717663932,5102171.17716853,3600913.1789792413,-192.24378781685581,-4617.532995488057,6428.541226214828,0.9947645568190571,-2.2369929249900486e-05,0.00020684824069432153,0.102193117233875
0.65,5.758616839325021e-06,0.0006247763240713797,-0.0072185484937165156,-41.802332855854296,47.146508141448614,5.029154460234161,-1658899.6782171028,5102148.089498073,3600945.322111127,-191.9774804911246,-4617.535187546412,6428.7115281449815,0.9947664041938349,-2.2539834661890393e-05,0.0002084077373621096,0.10217512977940839
0.655,1.2252468882519466e-05,0.0006286987538722851,-0.007226603505225995,-41.78659047618979,47.128234288297335,5.0281156749279265,-1658900.6374388193,5102125.001816595,3600977.4660943635,-191.71120614393743,-4617.537403554333,6428.881766441956,0.9947682475957644,-2.2688865970152432e-05,0.00020996256777747234,0.1021571778006192
0.66,2.4731927471740546e-05,0.0006371817854745348,-0.007210014109791402,-41.79677499076531,47.11421416916873,5.029400456721527,-1658901.5953294327,5102101.914124034,3601009.610928652,-191.44503923716292,-4617.539620629865,6429.051948847815,0.9947700927264246,-2.2822753565440387e-05,0.00021152881092250894,0.10213920575246706
0.665,-1.6844850281839573e-05,0.0006436339782694478,-0.007221007326783429,-41.788841753594546,47.098815997690046,5.028378689790238,-1658902.551889178,5102078.826420518,3601041.7566137174,-191.17885889700256,-4617.541786071093,6429.222077324298,0.994771933290801,-2.292776302523977e-05,0.00021311933821497364,0.10212127492029982
0.67,1.0535675459353023e-06,0.0006368733500201028,-0.007199937292562397,-41.78947127251135,47.09365007135296,5.035250241802346,-1658903.50711819,5102055.738706195,3601073.9031492984,-190.91274582031127,-4617.543943006875,6429.392155062215,0.9947737763297109,-2.3137824129030365e-05,0.00021471529627429173,0.10210331673706351
0.675,-5.348853398120652e-06,0.0006441597507591096,-0.007209779690097787,-41.796706239694316,47.07580576054559,5.0202556646173395,-1658904.4610166873,5102032.650981172,3601106.050535282,-190.64665322260905,-4617.546066205236,6429.562238452818,0.9947756136691888,-2.3301636016946526e-05,0.00021629901096240314,0.10208541091096474
0.68,1.6839918561322965e-05,0.0006285377007665953,-0.007200579753860183,-41.77039667957097,47.05969669242869,5.019355228262441,-1658905.4135846866,5102009.563245508,3601138.1987714013,-190.38054641809862,-4617.548199212066,6429.732209322559,0.9947774531909732,-2.3483235238086167e-05,0.00021789921185640782,0.1020674805770789
0.685,4.786375187881375e-07,0.0006344982180840137,-0.0072009761767561345,-41.77366905509423,47.04365043507438,5.020132371877458,-1658906.3648225293,5101986.475499112,3601170.3478572806,-190.11459063074273,-4617.550359379385,6429.902142333805,0.9947792900497435,-2.3605660956546512e-05,0.00021946622394163667,0.10204957307836977
0.6900000000000001,1.3650180328221027e-05,0.0006472768415448329,-0.0072035361985768025,-41.77556976127893,47.02899779491946,5.023161244603022,-1658907.3147306442,5101963.387742015,3601202.4977926803,-189.84865535832108,-4617.552479437187,6430.072017556475,0.9947811266805564,-2.3770297214264547e-05,0.00022104388527540122,0.10203166456907699
0.6950000000000001,7.229729911749924e-06,0.0006432556822935648,-0.007204372853189278,-41.773757657745186,47.022661574156444,5.015732931957319,-1658908.2633091502,5101940.299974425,3601234.6485773446,-189.58274710248136,-4617.554556530101,6430.241848090965,0.9947829636330329,-2.3905437433977738e-05,0.00022265668600450532,0.10201374965175157
0.7000000000000001,-3.682160376652253e-06,0.0006282455196964732,-0.007188732682148118,-41.7632928810252,46.99888629881577,5.025476842053608,-1658909.2105581532,5101917.212196387,3601266.8002110687,-189.3168540263067,-4617.556658525409,6430.411641587125,0.9947848004754865,-2.405551996449064e-05,0.0002242578487234623,0.10199583262416163
0.705,-6.7996183128335495e-06,0.0006430591668097142,-0.007207720490273975,-41.75391885365302,46.9880880679462,5.014685866344131,-1658910.1564779594,5101894.124408002,3601298.952693629,-189.0510685059962,-4617.558695585253,6430.5813825416935,0.9947866330131028,-2.4228903740008016e-05,0.0002258189001874968,0.1019779544668304
0.71,2.0262465422986916e-06,0.0006246673494438739,-0.007163056931978888,-41.7544022560444,46.977754446847776,5.020023702334421,-1658911.10106897,5101871.036609323,3601331.1060247486,-188.78533578369058,-4617.5607761287565,6430.751065252926,0.9947884700583466,-2.4413827904416896e-05,0.0002274159966930722,0.10196002905503532
0.715,6.442007938715211e-06,0.0006379579088722069,-0.00720122122903907,-41.75747189788399,46.95725391932868,5.0133656788206125,-1658912.0443313885,5101847.948800338,3601363.2602042328,-188.5196315593494,-4617.562817408391,6430.920728455505,0.9947902954063348,-2.457208892079501e-05,0.0002289696056446614,0.10194221468316937
0.72,5.95783182947093e-06,0.0006353236117643845,-0.00719972995009412,-41.744636648884786,46.94664534780465,5.014449533540885,-1658912.9862653355,5101824.8609812,3601395.415231792,-188.25394722488906,-4617.564838065767,6431.090295112386,0.9947921301501732,-2.4722777056550186e-05,0.00023055739085750708,0.10192430536115868
0.725,8.605525148673475e-06,0.0006345042623751631,-0.00716280681034353,-41.7444369666834,46.93263521294694,5.005924705651518,-1658913.9268710688,5101801.773151947,3601427.5711071305,-187.9883460953815,-4617.566862934263,6431.259840423362,0.9947939641906307,-2.487399721386766e-05,0.00023213850126886773,0.10190639971508522
0.73,-2.8967896568224204e-06,0.0006310460691271103,-0.007217864290787058,-41.73681276893829,46.913956138393914,5.006895747646526,-1658914.8661488474,5101778.68531255,3601459.727830014,-187.7227653798483,-4617.5688961378555,6431.429313100559,0.9947957885018206,-2.501840241919865e-05,0.00023371825073355412,0.10188858586171438
0.735,-1.7445297003776502e-05,0.0006311306248234482,-0.007189994851109833,-41.731864759424155,46.89434753587029,5.015675570511793,-1658915.8040989083,5101755.597463047,3601491.8854001146,-187.45725895192516,-4617.570904764584,6431.598726936453,0.9947976265146901,-2.5190565045995813e-05,0.0002352864663018348,0.10187063505472765
0.74,6.656094579835253e-06,0.000633359683914242,-0.007187348672409328,-41.719647977465115,46.88525195539546,5.004350552839064,-1658916.740721622,5101732.50960366,3601524.043817176,-187.19182654843462,-4617.57285047465,6431.76809779464,0.9947994571037551,-2.539891485711073e-05,0.00023685118867363962,0.10185275353412845
0.745,-1.5134986554422341e-05,0.0006182346446072035,-0.007170082744040585,-41.721266097096645,46.868655326755736,5.001622579373166,-1658917.6760173282,5101709.421734405,3601556.203080966,-186.9264558899025,-4617.5748515038795,6431.937418184851,0.994801286695441,-2.5547890554436026e-05,0.00023842759178605458,0.1018348785470083
0.75,-5.767852032737861e-06,0.0006044524376071613,-0.007175623785420631,-41.720860484123605,46.85735619587845,5.00651767600345,-1658918.609986242,5101686.333855205,3601588.363191187,-186.6611095925998,-4617.576828340438,6432.106670105836,0.9948031115762169,-2.5747199799306795e-05,0.00023996083217220235,0.10181704648121338
0.755,1.0201015350094012e-05,0.0006247880458437403,-0.007193329896812386,-41.70406081869227,46.84001688756308,5.003368055533035,-1658919.542628508,5101663.245966216,3601620.5241476074,-186.39579689063777,-4617.578767246193,6432.275898035072,0.99480493755408,-2.5919708064482396e-05,0.0002414621800028698,0.1017992005970949
0.76,-2.1909867934512696e-06,0.0006264043460664512,-0.007177894820301613,-41.71833735941229,46.82218802924374,4.994913807943138,-1658920.4739444798,5101640.158067498,3601652.685950024,-186.1305918520056,-4617.580719760524,6432.445068701084,0.9948067677035931,-2.6057687610974945e-05,0.00024301816556126398,0.10178131063361999
0.765,8.631099952685544e-06,0.0006346393665771397,-0.007174165528103325,-41.70076289433932,46.805912973316374,5.006563960584492,-1658921.4039343328,5101617.070159094,3601684.848598044,-185.86534932006685,-4617.5826418350625,6432.614139272374,0.9948085936003468,-2.622688816336589e-05,0.00024457501862659806,0.10176345903177042
0.77,-1.2094353243027097e-06,0.0006467745718276684,-0.007180740051098934,-41.69422982191448,46.79017818953421,4.98735021799452,-1658922.3325982937,5101593.982241182,3601717.0120913894,-185.6002349909691,-4617.584523191304,6432.783198945133,0.9948104182213628,-2.6371266725214613e-05,0.000246155105762511,0.1017456166645886
0.775,1.862583519364104e-05,0.0006337950220855468,-0.007183422065447456,-41.687313692604405,46.7765804440883,4.996236681550404,-1658923.259936778,5101570.894313714,3601749.1764297727,-185.33515880681955,-4617.58646401359,6432.952154355662,0.9948122441837287,-2.6543209751786686e-05,0.0002477628698782897,0.101727757918632
0.78,-6.485995418951517e-07,0.0006430092989952869,-0.007174182305067951,-41.68336517342234,46.75686251057546,4.9912054454174966,-1658924.1859500618,5101547.806376656,3601781.3416128913,-185.07015467747905,-4617.588359237516,6433.121093084516,0.9948140705142714,-2.6662522554800015e-05,0.00024934339769206056,0.10170989245794208
0.785,4.2780507584925984e-07,0.0006393103018531965,-0.007189801064810757,-41.68019061445825,46.74505729792401,4.993463403200072,-1658925.1106384548,5101524.718430148,3601813.5076404964,-184.80520251371786,-4617.590243589657,6433.289948885514,0.9948158941653881,-2.6832108744453465e-05,0.0002509419412698588,0.10169204995524252
0.79,-1.9903973743179898e-06,0.0006464434367238664,-0.007176687824710275,-41.682903146169,46.72062812642231,4.98993410387009,-1658926.0340021958,5101501.630474278,3601845.6745123025,-184.5402938771389,-4617.592104883828,6433.458773598027,0.9948177214663904,-2.6998087266326257e-05,0.00025253155782001046,0.10167416857459471
0.795,1.795377647732889e-05,0.000626699546010045,-0.007177532234944072,-41.67623877406413,46.71143257358785,4.987638045108364,-1658926.956041475,5101478.542509203,3601877.8422279735,-184.27541779023383,-4617.59392492818,6433.627494876365,0.994819545106139,-2.7171884816178054e-05,0.0002541383009237885,0.10165631977514926
0.8,-4.485468438810483e-06,0.0006236677367393897,-0.007152531347504085,-41.659587366080395,46.683824359607925,4.989279705012291,-1658927.876756495,5101455.454535008,3601910.0107871755,-184.0105903025454,-4617.595753004325,6433.796185846839,0.9948213686515892,-2.7291063030638492e-05,0.00025570100849508717,0.10163846883129891
0.805,-1.1334134471936368e-06,0.0006272246971376726,-0.007169516085167286,-41.65736288017306,46.67338917453921,4.984600551716456,-1658928.7961477072,5101432.366551746,3601942.180189618,-183.74589450976478,-4617.59755189264,6433.964791128469,0.9948231855231857,-2.746526248402268e-05,0.0002572504756916177,0.10162068004768211
0.81,1.2705343714629891e-05,0.0006598968081786555,-0.00716856549883949,-41.648030699376896,46.66065999724944,4.985122139606652,-1658929.7142155098,5101409.278559475,3601974.3504349724,-183.48122656889015,-4617.599356239838,6434.133350643033,0.994825006386451,-2.763203974870942e-05,0.000258809639600797,0.10160284898682016
0.8150000000000001,9.22307509011205e-06,0.0006189341177342389,-0.007155480804909868,-41.646738387773205,46.64888541218883,4.983373336949573,-1658930.6309601492,5101386.190558198,3602006.521523038,-183.21662916624345,-4617.601154889932,6434.301875587038,0.9948268266659424,-2.7772697484126093e-05,0.0002604535762174009,0.10158502024601476
0.8200000000000001,2.2149785169542533e-06,0.0006473066117904369,-0.007193298488796486,-41.63123160607515,46.625501938016264,4.977143416861419,-1658931.5463818763,5101363.102547955,3602038.693453619,-182.9520616435853,-4617.602942432602,6434.470356785113,0.9948286433273633,-2.7911604336947992e-05,0.00026199475233414993,0.10156722402000498
0.8250000000000001,1.541243882899711e-05,0.0006121100490912537,-0.007164985729837969,-41.631714694863774,46.60688585546905,4.978380154751955,-1658932.4604810376,5101340.01452875,3602070.866226377,-182.68760290824736,-4617.6047391188085,6434.638746422672,0.9948304692497731,-2.8075169877467848e-05,0.00026360471066921105,0.10154933370838887
0.8300000000000001,-1.557026640084991e-05,0.0006075411098919808,-0.007142993439202168,-41.62110903520725,46.59378744976751,4.967097833391245,-1658933.3732580007,5101316.926500669,3602103.0398409213,-182.42318228987767,-4617.606493643177,6434.807071411574,0.9948322876855198,-2.8196958192617304e-05,0.00026513048485671194,0.10153151377357028
0.835,-1.951016471715969e-05,0.0006414404667857081,-0.007156902417117214,-41.617551478932945,46.57182328414526,4.96430836381065,-1658934.284713015,5101293.838463708,3602135.214296921,-182.15882341964908,-4617.608290737685,6434.975328367926,0.9948341002193007,-2.8394628682140438e-05,0.0002666370328860808,0.10151374852349859
0.84,2.5125518737977473e-05,0.0006428921053182498,-0.007118929266635379,-41.604456693420325,46.56006260201891,4.974195144256233,-1658935.1948463775,5101270.750417826,3602167.3895939896,-181.89452159404513,-4617.610062151092,6435.143499111199,0.9948359159397969,-2.861071042410959e-05,0.0002682268905481666,0.10149594864815047
0.845,-2.4430034709987216e-05,0.0006313916761217872,-0.007151711524228947,-41.611658608700715,46.533851058578904,4.963413935167112,-1658936.103658475,5101247.662363168,3602199.5657319087,-181.63031741009183,-4617.611800874715,6435.311668512731,0.9948377217078482,-2.8716122079340154e-05,0.000269831687048206,0.10147824315281986
0.85,-1.9451292405819065e-05,0.0006329149397647817,-0.007148007402339532,-41.59914440441776,46.52605493404624,4.965186255875976,-1658937.011149567,5101224.574299882,3602231.742710338,-181.36611946160366,-4617.613513498669,6435.479703132806,0.9948395354777227,-2.8941887565936278e-05,0.00027139530643004287,0.10146045612662902
0.855,1.2524528814268165e-05,0.0006352621001442843,-0.007152172030729136,-41.596851228963764,46.494194334384694,4.967469617926145,-1658937.917319863,5101201.486228015,3602263.920528919,-181.10199896192546,-4617.615233311477,6435.647729308833,0.9948413479870272,-2.915565428336441e-05,0.00027296397736340075,0.10144267827679654
0.86,-1.757247792966331e-05,0.0006334379540836605,-0.007136822750719327,-41.586847738752546,46.497594098456894,4.963353795913365,-1658938.822169746,5101178.398147726,3602296.0991873476,-180.83795421319454,-4617.616882142513,6435.815642230784,0.9948431612328612,-2.9290491916267583e-05,0.000274546594818148,0.10142489001444262
0.865,-1.539874131872406e-05,0.0006115192875284964,-0.007128797300711599,-41.58999650183768,46.464784712057295,4.9566537822388,-1658939.7256995013,5101155.310059066,3602328.278685387,-180.57394789301043,-4617.618581838941,6435.983573615588,0.994844970265863,-2.9499710973311596e-05,0.0002761170449965081,0.10140713991558321
0.87,2.563922509952561e-06,0.0006336871945513328,-0.007155156202517392,-41.575860848782234,46.44652747291457,4.960473470187707,-1658940.6279093288,5101132.22196203,3602360.459022717,-180.3099830947737,-4617.62023259544,6436.1513582137995,0.9948467769608069,-2.9697961380448978e-05,0.0002776335325713606,0.10138940974454481
0.875,-2.625541189312518e-06,0.0005817431321458447,-0.007138844011856257,-41.56760726691257,46.44034604863894,4.955657246040591,-1658941.5287995979,5101109.133856794,3602392.64019886,-180.04612449911974,-4617.621861786306,6436.319098929349,0.9948485900034129,-2.9857173805316733e-05,0.0002792097053368544,0.10137161396915294
0.88,1.065090274622265e-05,0.000603590623242324,-0.0071455678945454276,-41.56171051271207,46.41645939967641,4.955658279516895,-1658942.4283706914,5101086.0457433425,3602424.8222136465,-179.78231288251158,-4617.623519051543,6436.486815776321,0.994850398628003,-3.0016117527280858e-05,0.00028065537287627797,0.10135385873906333
0.885,8.066191220177006e-07,0.0006083934552242605,-0.007129804927167107,-41.55691014484789,46.39494695544203,4.9530932112783255,-1658943.326622913,5101062.957621695,3602457.005066807,-179.51857579175885,-4617.625140000636,6436.654448321814,0.9948522086226261,-3.0147581587309197e-05,0.00028215874133116504,0.10133608674233936
0.89,1.4382033498924123e-05,0.0006400495319553166,-0.007141958036300803,-41.549870496202324,46.37922513394746,4.9498861586536105,-1658944.2235566042,5101039.869492,3602489.188757923,-179.25490074368372,-4617.626737913851,6436.821998138584,0.9948540143006648,-3.030473528727834e-05,0.00028367156220066264,0.1013183539242551
0.895,1.3181786739131524e-05,0.0006253530638870318,-0.007120348268754201,-41.53781791402202,46.36428765347354,4.946500366219935,-1658945.1191720725,5101016.781354322,3602521.3732866403,-178.9912864828551,-4617.62833318084,6436.9894887875535,0.9948558227165721,-3.0436152061504828e-05,0.0002852665535925708,0.10130059083522955
0.9,5.314685824750784e-06,0.0006395055026134699,-0.0071218817847374175,-41.527070842466344,46.343259201698935,4.954822803477441,-1658946.0134696732,5100993.693208642,3602553.5586526804,-178.72775385707263,-4617.629938559958,6437.156927169414,0.9948576253514739,-3.056681669356893e-05,0.0002868246904060526,0.10128288146223555
0.905,1.7402651402451979e-06,0.0005996661045268043,-0.007123654011468482,-41.52582313454149,46.330915551531895,4.948768017548317,-1658946.9064498653,5100970.605055069,3602585.7448557983,-178.46432300985688,-4617.631491249521,6437.324320170373,0.9948594280461263,-3.072063252826143e-05,0.00028841603415805995,0.10126516824737221
0.91,1.5140949970846121e-05,0.0006219519830602566,-0.007112069527824577,-41.517988325103694,46.31053995770324,4.945163860220641,-1658947.7981129661,5100947.516893719,3602617.931895736,-178.20091723046428,-4617.633048334578,6437.491654929351,0.9948612309000461,-3.087325388790871e-05,0.0002899073862690517,0.10124745059800172
0.915,-1.3630340433019531e-05,0.0006343900489886454,-0.007120262904987678,-41.51183989080565,46.29627409913873,4.942168460241191,-1658948.6884592182,5100924.42872461,3602650.1197721516,-177.93758366729017,-4617.634595283321,6437.658911152672,0.9948630304892555,-3.099817825809082e-05,0.00029145755953600375,0.10122976171728663
0.92,1.3314330148642521e-05,0.0006322993177781832,-0.007119420355776097,-41.50090360140757,46.27570466124977,4.941625990579412,-1658949.5774889388,5100901.340547771,3602682.308484714,-177.67430451900353,-4617.636140204249,6437.826113949264,0.9948648318233781,-3.1197815077462426e-05,0.00029303138622776805,0.1012120524460627
0.925,3.943752973018213e-06,0.0006369894235120972,-0.007112084810781399,-41.501034436304,46.25614804739945,4.937832675612232,-1658950.4652024894,5100878.252363249,3602714.4980331208,-177.41111576661086,-4617.637668817183,6437.993248570702,0.9948666326302494,-3.1329906488732206e-05,0.000294606830717816,0.10119434521849872
0.93,-4.046984245138529e-07,0.0006274827219405995,-0.007128412424945651,-41.489825840476,46.22806400552667,4.9308733945801695,-1658951.3516001834,5100855.164171143,3602746.688416994,-177.14796179763846,-4617.639173526374,6438.160300827614,0.9948684312598004,-3.148648520410657e-05,0.00029619157013913605,0.10117665620991238
0.935,-9.169905504735099e-06,0.0006191274822636601,-0.007126984223022843,-41.48341708107997,46.21785210000681,4.940544471156931,-1658952.2366823498,5100832.075971533,3602778.879635838,-176.8849047534372,-4617.640670504445,6438.327236674911,0.99487023370826,-3.165148670153428e-05,0.00029775156348299,0.10115892656341269
0.9400000000000001,-1.5121914756686336e-05,0.0006314261578016712,-0.007112504805798421,-41.47218240338336,46.20828951016768,4.924525289012944,-1658953.1204493921,5100808.987764543,3602811.0716893575,-176.62191222842475,-4617.642125380048,6438.4941711927695,0.9948720354827444,-3.1836174717063894e-05,0.0002992885591991161,0.10114120044392153
0.9450000000000001,-1.8640695309130843e-05,0.0006257406549314559,-0.007096516636673337,-41.464028230650165,46.183679332002214,4.926049898533133,-1658954.002901602,5100785.899550103,3602843.264577383,-176.3589717022598,-4617.6436507987555,6438.661039179064,0.9948738332687634,-3.20387653645363e-05,0.00030085464000962595,0.1011235103085325
0.9500000000000001,6.13447096021665e-06,0.0006295830072816043,-0.0070893288247562275,-41.45642602325034,46.157678475576034,4.925316649175594,-1658954.884039329,5100762.811328134,3602875.4582995465,-176.09611900792834,-4617.645136763902,6438.827826016148,0.9948756267005225,-3.224865848825752e-05,0.00030240569153139785,0.10110585990962258
0.9550000000000001,-1.658229350051212e-06,0.0005968988282007594,-0.007096838877033604,-41.45184513594511,46.13827034657133,4.920872454912262,-1658955.7638630045,5100739.723098822,3602907.65285541,-175.83335125938206,-4617.646587839583,6438.994519257845,0.9948774179992752,-3.239789685584396e-05,0.00030397256247981203,0.10108822733707945
0.96,7.64822964451556e-07,0.0005940037214945024,-0.007097375510966414,-41.45680680805161,46.12133718129412,4.921051125418078,-1658956.6423729782,5100716.634862284,3602939.8482445395,-175.57063825936922,-4617.64802753997,6439.161132786478,0.9948792109050005,-3.2558262909888e-05,0.0003054561714687721,0.10107057606212712
0.965,1.3479219545503e-05,0.0006376369729476183,-0.00710910653306121,-41.439222329404146,46.10399674266578,4.927096284987269,-1658957.5195694207,5100693.546618655,3602972.0444665756,-175.30793868035215,-4617.649423791127,6439.327681622031,0.9948810036333303,-3.2711871227216475e-05,0.0003069331918617608,0.10105292341880362
0.97,7.277385018922451e-06,0.0006354686793860194,-0.007089504022858604,-41.43060650062286,46.082172798083334,4.915257274512161,-1658958.395452672,5100670.458368099,3603004.241521278,-175.04536187064346,-4617.650798771205,6439.494199269597,0.9948827989767561,-3.284488842571865e-05,0.00030852194799771757,0.10103524155262106
0.975,1.7955860544437897e-05,0.0006145370432064055,-0.007096170087872223,-41.419825441912344,46.06514322577951,4.927414498567782,-1658959.2700232086,5100647.370110617,3603036.4394083014,-174.78285276578714,-4617.652194245799,6439.660610091031,0.9948845890540743,-3.2992768055349076e-05,0.00031010374614077216,0.10101760841481841
0.98,-1.0550023780018137e-05,0.0006326501264277483,-0.007095544408248231,-41.41413038143592,46.04325867041499,4.919280321149187,-1658960.1432814486,5100624.2818463035,3603068.6381273326,-174.52044321657684,-4617.6535310692625,6439.827002430784,0.9948863805167262,-3.310880705603678e-05,0.0003116361790152399,0.10099995865854082
0.985,1.831254002563369e-07,0.0006193098786800845,-0.007100062588952674,-41.397303898596284,46.02533712484138,4.908272338324058,-1658961.0152277893,5100601.193575307,3603100.8376780776,-174.25809311495658,-4617.6548676509865,6439.993295597533,0.9948881714894171,-3.330031940061064e-05,0.000313206465259332,0.10098231044714312
0.99,-7.270723077594642e-06,0.0006283361655099278,-0.0070775040394026375,-41.39823547279652,46.00574535956857,4.915937396466213,-1658961.885862626,5100578.105297519,3603133.038060084,-173.99584153339592,-4617.656247241911,6440.159506890229,0.9948899632983927,-3.346177174192722e-05,0.00031474628053668305,0.10096465095869694
0.995,1.8316383080301752e-05,0.0006269422333261914,-0.007070980558740638,-41.37738645271093,45.98065727351845,4.915306019125304,-1658962.7551863194,5100555.0170130115,3603165.2392730187,-173.7336358247657,-4617.657556009063,6440.325666985201,0.9948917490907184,-3.3644024059447826e-05,0.00031630666656894607,0.10094704755159178
1.0,-1.3422025820677449e-05,0.0006121517397321575,-0.007083293047063993,-41.38002959968756,45.969673641254296,4.902116255973218,-1658963.6231993411,5100531.928721975,3603197.441316557,-173.47157288470933,-4617.658858668206,6440.491748435652,0.9948935329263496,-3.37622784224699e-05,0.0003178700433781693,0.10092946031794023
1.0050000000000001,-1.534824468517334e-05,0.0006334891536472866,-0.007089966879297354,-41.37500476534796,45.946848367104124,4.899232613538046,-1658964.489902038,5100508.840424356,3603229.644190313,-173.20950584142204,-4617.660188877981,6440.657753880045,0.9948953195639605,-3.395575141232319e-05,0.0003193886232806148,0.1009118424548843
1.01,3.274465790941714e-05,0.0006323553878299178,-0.00707809669139163,-41.36268185080318,45.92170163060363,4.902350719129479,-1658965.3552945617,5100485.7521201465,3603261.8478938737,-172.9475036277326,-4617.661494620819,6440.823670408508,0.9948971075533533,-3.415940368001594e-05,0.0003209597878028487,0.10089420796022516
1.0150000000000001,-1.4154382273226378e-05,0.0006266010026655877,-0.007107021352339754,-41.353997437501164,45.906282251015085,4.908146753877206,-1658966.219377348,5100462.663809505,3603294.0524268285,-172.6856108612505,-4617.6627618655975,6440.9895114537385,0.9948988922391383,-3.424314171205572e-05,0.00032254026402476447,0.100876602919214
1.02,5.924768022937319e-06,0.0005977764591629407,-0.007046408566633393,-41.34798126904943,45.88713482835935,4.8990785264343435,-1658967.082150868,5100439.575492614,3603326.2577889096,-172.42379714785832,-4617.663994861155,6441.155320992578,0.9949006839048345,-3.4442101357400934e-05,0.000324094597550097,0.10085892594176346
1.025,-3.325251004426903e-06,0.0006182384206632979,-0.007086727964308519,-41.335852988652704,45.87186937563526,4.885409913498044,-1658967.943615456,5100416.487169531,3603358.4639798123,-172.1620381497247,-4617.665238235219,6441.321040100172,0.9949024599985217,-3.458380194904826e-05,0.0003255823052010317,0.10084139967797504
1.03,2.188401660428558e-05,0.0006129103505896058,-0.00705017357700609,-41.33807345236751,45.84959211642586,4.893933577084389,-1658968.8037714222,5100393.398840107,3603390.670999104,-171.9003483305435,-4617.666531497338,6441.486676676201,0.9949042459266019,-3.4753701046833036e-05,0.00032711857144101814,0.10082377310357066
1.035,-4.976636324753474e-07,0.0006002291661238672,-0.007069755640747634,-41.32030406413296,45.82393338442175,4.889403781807876,-1658969.6626190543,5100370.310504423,3603422.878846427,-171.6387044885822,-4617.667741712116,6441.652252445382,0.994906022334314,-3.4859525230869396e-05,0.00032864794268892784,0.10080623739757769
1.04,9.285404354850528e-06,0.0006080844126162575,-0.007063624532877475,-41.311970577090335,45.80606838264357,4.885872656758057,-1658970.5201587796,5100347.222162686,3603455.0875213924,-171.37718557217806,-4617.66895347663,6441.817733727383,0.9949078033732576,-3.5017838807890267e-05,0.0003301401301277321,0.10078865297366106
1.045,-4.8539451931578244e-06,0.0006080572482167451,-0.007069466071313916,-41.30340340075273,45.79513647071546,4.8899186228352995,-1658971.3763910846,5100324.133814898,3603487.2970235944,-171.11573651283044,-4617.670161447257,6441.983147131629,0.9949095825489149,-3.515379348616303e-05,0.0003316543211701806,0.10077108375901256
1.05,-2.3648035426108236e-06,0.0006243967156512921,-0.007061242541246888,-41.28955684919145,45.763340448187336,4.8869253028144515,-1658972.231316315,5100301.0454611145,3603519.507352818,-170.85435560537664,-4617.671352130781,6442.148542196599,0.9949113628821864,-3.532491458924914e-05,0.0003331648819357204,0.10075349999489983
1.055,7.654617635593143e-06,0.000606865564745777,-0.007053207482413741,-41.283460926365656,45.74703494894641,4.8836884503637945,-1658973.0849349417,5100277.957101444,3603551.7185087204,-170.59309503653236,-4617.672516213602,6442.313818879455,0.9949131408179253,-3.5493953289785646e-05,0.0003347167111016339,0.10073593664980587
1.06,-1.5728928718666206e-05,0.000619052071005245,-0.007069897540569258,-41.273014598551306,45.725931889468676,4.877536766842242,-1658973.9372474088,5100254.868735967,3603583.93049085,-170.33189185005634,-4617.6736743000365,6442.479032977974,0.9949149164336236,-3.5633649078776074e-05,0.0003362274592339741,0.1007183932517519
1.065,6.741815196436367e-07,0.0006265284185983291,-0.007026567196925002,-41.26444808339151,45.70129815545578,4.87442397772067,-1658974.7882540645,5100231.780364692,3603616.1432988336,-170.07077043457952,-4617.67483577261,6442.644160446961,0.9949166959270722,-3.583458899671114e-05,0.00033776262923301207,0.10070080832767168
1.07,-1.7112529474756544e-05,0.0005958324150837272,-0.007042471857588272,-41.25345652384272,45.685141877969706,4.878075044138081,-1658975.6379553222,5100208.691987661,3603648.3569322196,-169.80973261647966,-4617.675976722298,6442.809193895696,0.9949184641958533,-3.5996575180016346e-05,0.00033932052838193553,0.10068333113276605
1.075,-3.2705145381452137e-07,0.0006198754036119547,-0.007051405965839242,-41.25051390873284,45.65642341050176,4.871236595492779,-1658976.4863516104,5100185.603604982,3603680.571390676,-169.54878267759005,-4617.677094857252,6442.974188641553,0.994920236182377,-3.6195089222296524e-05,0.0003407975988788756,0.10066581436473541
1.08,-2.1340672704106353e-05,0.0006192281170028917,-0.007029257354278024,-41.23836427450303,45.64215884512392,4.879371694221234,-1658977.3334433013,5100162.515216779,3603712.7866737917,-169.28789363932793,-4617.678186234329,6443.13905764916,0.9949220100872395,-3.6357911103220685e-05,0.00034233869490992276,0.10064827532693889
1.085,4.952898541915896e-06,0.0006179722924903842,-0.007067808234326914,-41.225840229153405,45.626736317902484,4.869528952303484,-1658978.1792307855,5100139.426823204,3603745.0027812086,-169.02710003295698,-4617.679243862963,6443.303909148403,0.9949237781070919,-3.6572818432002964e-05,0.0003438728953862113,0.10063079136611709
1.09,3.7001051381486155e-07,0.0006086696225633419,-0.007030494584503076,-41.2156595589535,45.59349416685928,4.867353219417098,-1658979.0237144919,5100116.338424252,3603777.2197127026,-168.76638251221087,-4617.680336696436,6443.468688431497,0.9949255555176235,-3.6722042706211734e-05,0.0003454105834631458,0.10061321146334987
1.095,-6.253140863958085e-06,0.0006194711857314449,-0.007035437900535991,-41.212599145869966,45.57617071966634,4.8650107983048265,-1658979.8668948794,5100093.250019939,3603809.4374677804,-168.50577249110907,-4617.681388813461,6443.633342677467,0.9949273232388207,-3.688029389990615e-05,0.00034692398344976266,0.10059572434466975
1.1,-1.8611022292461434e-05,0.000606908383509943,-0.007012591884184409,-41.1985002928942,45.55654892038104,4.864776103463347,-1658980.7087723333,5100070.16161041,3603841.6560459626,-168.24520915347628,-4617.6824228027035,6443.797930124878,0.9949290918833119,-3.705773973285232e-05,0.000348462584146583,0.10057822490380221
1.105,1.600301004764593e-05,0.0006122261409907675,-0.007008791274704619,-41.186466059327444,45.535623847234405,4.858636281745556,-1658981.5493472284,5100047.073195734,3603873.8754469287,-167.98474884917897,-4617.683447695686,6443.962456475477,0.9949308544839413,-3.726274483033498e-05,0.000349966831773731,0.1005607822690295
1.11,-1.3798219092357332e-06,0.000611192975228976,-0.007032966317543445,-41.17458676240438,45.52190132603631,4.858184830540945,-1658982.3886200432,5100023.984775916,3603906.0956703154,-167.72437705053053,-4617.684479536437,6444.126898170543,0.9949326158197204,-3.7382987063755535e-05,0.0003514930086845236,0.1005433490257115
1.115,-4.148354316393086e-06,0.0006202496062662776,-0.007044983667726953,-41.18190523709936,45.501261010611934,4.851001713669156,-1658983.2265912043,5100000.896350936,3603938.3167158114,-167.46408742356923,-4617.685512084046,6444.291300254845,0.9949343829225351,-3.754622770027931e-05,0.0003530122440807307,0.1005258556352077
1.12,5.174402125266743e-07,0.0005980155783411645,-0.007009765963513317,-41.1526558412216,45.47031335538432,4.854783476089363,-1658984.063260917,5099977.807920865,3603970.538583062,-167.20379765715793,-4617.686516689967,6444.455599936896,0.9949361527267744,-3.7718641264930466e-05,0.0003545533093500749,0.10050833232374186
1.125,6.798342202634294e-06,0.0006165120882755602,-0.007010591959857232,-41.151507570622634,45.4482670531718,4.850321786659191,-1658984.8986296721,5099954.719485819,3604002.7612716025,-166.94370438802358,-4617.687501387867,6444.619816278262,0.9949379133925825,-3.7873831419707124e-05,0.00035604024661262844,0.10049089657739944
1.1300000000000001,-1.2564786410974821e-05,0.0006330325269168555,-0.0070165472812040814,-41.13749136385472,45.42219253950393,4.850451681675772,-1658985.7326980706,5099931.631045912,3604034.984780991,-166.68365494618786,-4617.688461513268,6444.783939083906,0.9949396739421542,-3.801804635637281e-05,0.0003575747688179852,0.10047345873808088
1.135,-2.963279900402559e-07,0.0006273792069790851,-0.007009677732411023,-41.12546976232291,45.40463353530089,4.835281098902272,-1658986.5654665083,5099908.542601268,3604067.2091107774,-166.42372019131017,-4617.689396056128,6444.947975485795,0.9949414356626853,-3.8214579131155504e-05,0.0003591455187448178,0.10045600607040311
1.1400000000000001,5.421306722437304e-07,0.0005761445472476751,-0.007017748301231108,-41.12027058656105,45.385594364414686,4.837297144469718,-1658987.3969354494,5099885.454151826,3604099.4342605053,-166.1638562217315,-4617.690380789917,6445.111915631696,0.9949431953559322,-3.837916995714457e-05,0.00036070528851186334,0.10043857044811753
1.145,-1.3704936683326556e-05,0.0006104628961928132,-0.00701128745599158,-41.11575581156919,45.36118390822828,4.839821803099328,-1658988.227105233,5099862.365697548,3604131.660229784,-165.90405715778883,-4617.691330593816,6445.275795926613,0.9949449568137998,-3.852881766217589e-05,0.0003621378289866548,0.1004211147244902
1.1500000000000001,-7.235281744016991e-06,0.0005953086819851143,-0.007015483826309914,-41.11106941485022,45.340123204853235,4.83546458640428,-1658989.0559762013,5099839.2772386465,3604163.8870182624,-165.64433021519238,-4617.692229767503,6445.439595386902,0.9949467163090533,-3.87225128426524e-05,0.00036365215537616127,0.10040367504981633
1.155,-3.4515576209218523e-06,0.0006184970766987959,-0.007012780282473244,-41.09497577426579,45.31623955589018,4.828637146728582,-1658989.88354868,5099816.188775289,3604196.114625522,-165.38466130477522,-4617.693113453644,6445.60330851717,0.9949484765639076,-3.889631557435886e-05,0.00036513041110047996,0.10038622490172104
1.16,7.52132160908451e-06,0.0006289109220231321,-0.007015295158321076,-41.08008808801091,45.28892222959841,4.8246725514436175,-1658990.709823092,5099793.100307484,3604228.3430511095,-165.1251034908636,-4617.694008270708,6445.766926361526,0.9949502358112405,-3.906652378829275e-05,0.0003666672947040147,0.10036878144153535
1.165,9.751765861081288e-06,0.0006222526605261507,-0.007003928144729093,-41.06689747173179,45.27007772454442,4.829431827110656,-1658991.5348000037,5099770.011835232,3604260.57229453,-164.86566121088157,-4617.694892550546,6445.930441990408,0.9949519953727903,-3.921205368589629e-05,0.00036823283442924095,0.10035133168372787
1.17,1.2672129435005816e-05,0.0006391398408297851,-0.006986713316383891,-41.057587793460335,45.23998988950606,4.826561910239838,-1658992.3584799638,5099746.923358631,3604292.802355417,-164.606322839141,-4617.695747879338,6446.093912821992,0.9949537517809751,-3.9350354731167645e-05,0.00036978237309851853,0.10033391016753936
1.175,5.504951490538118e-06,0.0006105968880666214,-0.006988864999013213,-41.05832911978542,45.23039626046727,4.822175276737632,-1658993.1808634743,5099723.834877836,3604325.033233371,-164.347081347866,-4617.696570535244,6446.257268629819,0.9949555035489857,-3.948561167530413e-05,0.00037137465078454507,0.10031653143594907
1.18,1.2993000318620458e-05,0.0005904096356438825,-0.006982797861189949,-41.038934837850675,45.211062215623926,4.8133932644424196,-1658994.00195081,5099700.746392926,3604357.2649279926,-164.0878528820074,-4617.697392955074,6446.420580107903,0.9949572555763393,-3.9631539837804715e-05,0.0003728941332580024,0.10029914733089962
1.185,-2.1704976062852024e-05,0.0006234554356354974,-0.006975682090701847,-41.032744036387534,45.176196696524585,4.820108291768052,-1658994.821742291,5099677.657903816,3604389.497438973,-163.82873960551035,-4617.6982513441635,6446.583811998052,0.9949590057962151,-3.9753774700338815e-05,0.0003743652801971208,0.10028177828140813
1.19,7.726573329833777e-06,0.0006123443138456019,-0.006975242324542312,-41.01197192636868,45.14488354148311,4.818110563529759,-1658995.6402384653,5099654.569410632,3604421.7307658372,-163.5697300620641,-4617.699021912999,6446.746933638259,0.9949607538925633,-3.997059528010687e-05,0.0003759099268324266,0.10026442693009582
1.195,-1.0616297822465086e-05,0.000613520658074749,-0.006991412908703519,-41.00616605389364,45.14339183299104,4.823968055603613,-1658996.4574399707,5099631.480913635,3604453.9649080387,-163.3108720866486,-4617.699777008765,6446.9099471098225,0.9949625015871119,-4.011142221727075e-05,0.0003774343129147653,0.1002470766153794
1.2,1.4292824091032947e-05,0.0005992971906190835,-0.006978114812522687,-40.995714301074884,45.11377669206523,4.808098054448501,-1658997.2733472886,5099608.392412884,3604486.1998653645,-163.05205508529633,-4617.700523519826,6447.072983167928,0.9949642530257509,-4.029818538554244e-05,0.0003789570262575829,0.10022968606425092
1.205,-1.538243326740974e-06,0.0006124269881649871,-0.006965026045485599,-40.98588299178085,45.081161808928194,4.808971063151703,-1658998.0879607326,5099585.303908345,3604518.435637499,-162.79332248530355,-4617.701291996373,6447.235870651423,0.9949660008425433,-4.0419412694027254e-05,0.00038045060280319576,0.10021232853799006
1.21,4.2533246803440345e-06,0.0006048146779376811,-0.006973964833900018,-40.97053360280017,45.06247625984697,4.792140743679797,-1658998.9012807847,5099562.215400094,3604550.672223785,-162.53469837770632,-4617.702008265172,6447.398643673949,0.9949677450615864,-4.058329539462319e-05,0.0003819728736400336,0.10019500355198407
1.215,1.5513856186945952e-06,0.0006123784269766858,-0.006967244969914566,-40.95546291593324,45.04149074364455,4.797931473858869,-1658999.7133079302,5099539.12688811,3604582.909623679,-162.2761597644555,-4617.7027853792215,6447.561313836037,0.9949694912231783,-4.073087377171532e-05,0.0003834776591607008,0.10017765629605457
1.22,-1.157098077018864e-05,0.0006022658187178361,-0.006973924382509032,-40.947300642389784,45.01404844868869,4.801454702190689,-1659000.524042676,5099516.038372326,3604615.1478368,-162.0177385775264,-4617.703528343638,6447.7239348297235,0.9949712353898343,-4.088706085801155e-05,0.00038500058281231445,0.10016032572644015
1.225,1.0634085534946817e-06,0.0005930458950945254,-0.0069872316537439435,-40.93904813232925,44.99721863739692,4.796340154437176,-1659001.3334855535,5099492.949852962,3604647.3868628084,-161.75941248846343,-4617.704217100555,6447.886468383785,0.9949729809329638,-4.107336309813954e-05,0.00038649506542631,0.10014297852528338
1.23,2.192987126205641e-06,0.0006120113162672088,-0.006965568034245123,-40.92021225465473,44.97017229195335,4.80028109828789,-1659002.1416369642,5099469.861330144,3604679.626701313,-161.50115175459334,-4617.704910281319,6448.048933513859,0.9949747295126298,-4.1225942717103944e-05,0.0003879697757315169,0.10012559818120471
1.235,3.4293310683157883e-06,0.000602295088374267,-0.006969446139548882,-40.92604105781806,44.94958437921026,4.792429954952466,-1659002.948497428,5099446.772803943,3604711.867351954,-161.24303382756082,-4617.705570391632,6448.211322773473,0.9949764723463912,-4.138043886637145e-05,0.00038949194618691224,0.1001082716902763
1.24,1.91007340289979e-05,0.0005968876154601454,-0.006951371660254681,-40.905296451652134,44.92512979083913,4.792601097812211,-1659003.754067316,5099423.684274496,3604744.1088142837,-160.9849212957474,-4617.706208213442,6448.373609088482,0.9949782158561358,-4.152943175942378e-05,0.00039099025699729434,0.10009093552198549
1.245,5.942224851964718e-07,0.0006106488405045351,-0.0069533001729763354,-40.89219350583352,44.898694836666586,4.782299484466626,-1659004.5583469959,5099400.595741881,3604776.351087859,-160.72695062427994,-4617.70683764699,6448.53582106776,0.9949799545465517,-4.163807211350434e-05,0.00039247904018404223,0.10007364426768839
1.25,-1.2005500881352563e-05,0.000594390379453583,-0.006955760899323471,-40.89160654691714,44.87576671527011,4.774450831094825,-1659005.3613370664,5099377.507206088,3604808.5941721993,-160.46907761223596,-4617.707479736199,6448.697915066055,0.9949816934011766,-4.179619120704235e-05,0.0003939974233731204,0.1000563482025789
1.2550000000000001,5.323253751631464e-06,0.000606954312586561,-0.0069559442793191715,-40.86460081037013,44.857920517060776,4.785491035094078,-1659006.1630378678,5099354.41866712,3604840.838066742,-160.21124295479657,-4617.708107260663,6448.859901881141,0.9949834325830019,-4.198158704127631e-05,0.000395472212301542,0.10003904600016211
1.26,8.899518381145429e-06,0.0006037394938278211,-0.006939824068071007,-40.85800775461861,44.83761765309261,4.781471461084693,-1659006.9634499259,5099331.330125073,3604873.082771188,-159.9535803284785,-4617.708711558671,6449.02187670865,0.9949851714969603,-4.212702069432427e-05,0.00039698258723372523,0.10002174329266654
1.2650000000000001,6.7405276535853755e-06,0.0006076255612360157,-0.006949811126574143,-40.84600464240457,44.809836141333776,4.77762561000711,-1659007.7625738347,5099308.241580033,3604905.3282853067,-159.69598320832782,-4617.709304521313,6449.183770663697,0.9949869060810835,-4.226273863081426e-05,0.0003984858612610427,0.10000448064998174
1.27,-3.232588122436625e-05,0.0005920806598999891,-0.006946062045588077,-40.831568373450786,44.77918511292564,4.780296579017376,-1659008.5604100167,5099285.153032074,3604937.574608629,-159.43848948745566,-4617.70987932664,6449.345558282903,0.9949886428557723,-4.240480848287489e-05,0.00039999826080572515,0.09998719313618135
1.2750000000000001,6.788036110530375e-06,0.0005928398862902307,-0.0069409790200559455,-40.82579564390982,44.74916057144331,4.768083884141182,-1659009.3569590494,5099262.064481353,3604969.821740645,-159.18112359996346,-4617.710408680504,6449.507248141907,0.9949903784022734,-4.264016542822229e-05,0.00040146222777413966,0.09996991495843509
1.28,-2.537237448027967e-06,0.0006153357691026016,-0.00695847361902054,-40.80912618989857,44.73871294301706,4.775120550800968,-1659010.1522214243,5099238.975927995,3605002.0696807504,-158.92382639936454,-4617.710934983845,6449.668793996735,0.9949921123798033,-4.2778412079993314e-05,0.00040293785925740977,0.09995264935491138
1.285,3.88903436565082e-06,0.0005854533455602504,-0.006927724023957518,-40.79897416174124,44.70781353794459,4.770168318842953,-1659010.9461975812,5099215.887372033,3605034.3184285806,-158.66663641825676,-4617.71144963397,6449.830338181294,0.9949938504026278,-4.294549408365264e-05,0.00040446711659754866,0.09993534021050517
1.29,3.3676223254914906e-06,0.0006224637406093138,-0.006909145401814345,-40.786139606428335,44.67711453732247,4.761411044368115,-1659011.7388880367,5099192.79881356,3605066.567983823,-158.40954568349295,-4617.711939529154,6449.99175874642,0.9949955804719025,-4.30890939535318e-05,0.0004059236505763088,0.09991810752161899
1.295,2.1715160325398344e-06,0.0005926676540039703,-0.006915288499658268,-40.7768776072966,44.65627452241835,4.753333789306622,-1659012.530293303,5099169.710252647,3605098.81834584,-158.15256094901923,-4617.712425595516,6450.1530480193105,0.9949973055627819,-4.324321698493163e-05,0.00040747211913654707,0.0999009210132734
1.3,-1.213714129283673e-07,0.0006102571929522917,-0.006906976952148512,-40.76152051201474,44.63377386500975,4.757769589045101,-1659013.320413829,5099146.621689281,3605131.0695140725,-157.89564938154317,-4617.71292045743,6450.314245014326,0.9949990319187173,-4.339287992628204e-05,0.00040894617061502947,0.09988371919839018
1.305,7.5586245906554896e-06,0.0006055965937175156,-0.006896007017500237,-40.74587847384751,44.611519516329615,4.755253282473696,-1659014.109250096,5099123.533123522,3605163.3214881425,-157.6388573709878,-4617.713383483837,6450.475382971696,0.9950007558816696,-4.3552630180534484e-05,0.0004104634042524096,0.09986653802885374
1.31,-4.4847175828247865e-06,0.0006238522217963311,-0.006918006726273142,-40.73160691203672,44.58990682838847,4.752746851475716,-1659014.8968026813,5099100.444555455,3605195.574267709,-157.38217681953114,-4617.713843195507,6450.636443678162,0.9950024768129153,-4.3692101565495076e-05,0.0004119709631482022,0.09984938410971697
1.315,1.1681904241994963e-05,0.0005898376684548448,-0.00691163321377391,-40.71908239441088,44.55979465995109,4.748479982940005,-1659015.6830721244,5099077.355985101,3605227.82785239,-157.1256004288994,-4617.714298205815,6450.79742862658,0.9950042029166585,-4.386611051670883e-05,0.0004135209242042871,0.09983217544657028
1.32,-2.308826229423468e-06,0.0006007477430264238,-0.006900937224451711,-40.71438699540937,44.53860856871023,4.74706578140926,-1659016.4680589589,5099054.267412526,3605260.0822417038,-156.86913333595584,-4617.714732348743,6450.958296950343,0.9950059271669932,-4.399140885694754e-05,0.0004149903091485265,0.09981498259455594
1.325,4.5230706264787345e-06,0.0006032608969169131,-0.006906085477225838,-40.69679191161998,44.51261463528286,4.742631431000545,-1659017.2517636123,5099031.178837847,3605292.337435162,-156.61272806096648,-4617.715138888408,6451.119086438689,0.9950076484365997,-4.415422070877514e-05,0.0004164833429053313,0.09979781633231229
1.33,-1.6779679079417583e-05,0.0006225056691923449,-0.00689779168649572,-40.69006468184996,44.48124776706998,4.745270077333133,-1659018.0341865506,5099008.090261137,3605324.5934323277,-156.3564472150914,-4617.7155450514865,6451.279779687554,0.9950093706901724,-4.4300670451857056e-05,0.0004179843320081691,0.09978063722634817
1.335,-2.3824429658119465e-05,0.0005832606370588642,-0.006901905674487003,-40.6758906155742,44.45971090820364,4.728453807903619,-1659018.8153283205,5098985.001682553,3605356.850232691,-156.10026073429256,-4617.715888370475,6451.440365733209,0.9950110905537948,-4.450490324300958e-05,0.0004195278797211538,0.09976347874156984
1.34,9.60299988326792e-06,0.0005962431301238725,-0.0069045624341649,-40.66091663892712,44.43114965715314,4.72962893323571,-1659019.595189371,5098961.913102125,3605389.107835696,-155.84415942799075,-4617.716283338013,6451.600836201151,0.9950128111855285,-4.471687629572092e-05,0.00042097204672301004,0.09974631000497582
1.345,-1.5713297360959798e-06,0.0005755678215001889,-0.0068903461603642795,-40.641696462204315,44.40875219344737,4.737898641103046,-1659020.3737702258,5098938.824519805,3605421.3662408204,-155.58818255971934,-4617.716644575953,6451.7612134975725,0.9950145321713194,-4.484893771891173e-05,0.00042245684332573664,0.09972913459304994
1.35,1.4532911434923639e-05,0.0005965719733216821,-0.0069064217703778165,-40.63601295512403,44.39102627919208,4.7308562118791375,-1659021.1510715503,5098915.735935776,3605453.625447719,-155.33234727558192,-4617.716966942798,6451.921546010263,0.9950162493352552,-4.500362583857138e-05,0.00042388742479900653,0.09971199452887364
1.355,-1.23932015078483e-05,0.0005844156087680928,-0.006908001988788522,-40.627952047744614,44.35977840796698,4.7272895862042805,-1659021.9270938304,5098892.647350124,3605485.885456081,-155.07656475973656,-4617.717293839547,6452.081798753809,0.9950179701879934,-4.512350694093221e-05,0.0004253742674825697,0.09969481442666435
1.36,-1.507299275985734e-05,0.000616097588636813,-0.006892336768219044,-40.615162059386556,44.33863320703284,4.721173649061433,-1659022.7018374284,5098869.558762926,3605518.146265399,-154.82087437442684,-4617.717585315808,6452.241928495809,0.9950196911456017,-4.53073398095428e-05,0.00042682415937256453,0.09967763039365146
1.365,-1.2327475628714024e-05,0.0006107892433197599,-0.006885802232975699,-40.59679678000346,44.313415615943406,4.719729348379278,-1659023.4753028043,5098846.470174252,3605550.407875153,-154.56527596421802,-4617.717884353629,6452.401973004884,0.9950214078670807,-4.550571702318681e-05,0.00042835219560540856,0.09966048529803019
1.37,9.526744882888042e-06,0.0005927543599337076,-0.006876101522239178,-40.591412458609916,44.28393382896132,4.723205478780052,-1659024.2474905136,5098823.381584105,3605582.670284919,-154.30980784042669,-4617.718174540085,6452.561933367021,0.9950231226689841,-4.569593502404277e-05,0.00042986771170943125,0.09964335642528306
1.375,1.2624547493039015e-05,0.0006055545635436651,-0.006870790792723243,-40.570527041860046,44.26137230251485,4.709920715837796,-1659025.0184010975,5098800.292992668,3605614.9334942405,-154.05442568235463,-4617.71840012062,6452.721795364446,0.9950248347795345,-4.582728630859426e-05,0.0004313438100482329,0.09962625163247653
1.3800000000000001,1.8962142340493392e-07,0.0005984488644174581,-0.0068646622822036395,-40.56169166131609,44.237863712364465,4.7093623225569115,-1659025.7880350745,5098777.204399981,3605647.197502611,-153.79916513310832,-4617.718674738498,6452.881552927573,0.9950265452578753,-4.59541139670736e-05,0.0004328525217245013,0.09960916001599142
1.385,5.564936628769414e-06,0.0005705176049618771,-0.006891318533576184,-40.54478752889352,44.2151980350606,4.708064385563734,-1659026.5563929628,5098754.115805991,3605679.4623095635,-153.5439901494514,-4617.7189214014825,6453.041227924415,0.9950282539207636,-4.611009820206203e-05,0.00043434046149678265,0.09959208362926646
1.3900000000000001,-6.651484147265743e-06,0.0005933977933987062,-0.006882631702690147,-40.53057984016582,44.179302126657475,4.700132990229136,-1659027.3234752743,5098731.027210783,3605711.727914704,-153.28893447379457,-4617.719161469104,6453.2008282996185,0.9950299689551556,-4.6245785560967535e-05,0.0004357602554332009,0.09957494090095738
1.395,-1.113713895511664e-05,0.000596532930175546,-0.006870192685901272,-40.52010678824948,44.15719135760803,4.704050679611655,-1659028.0892826135,5098707.938614417,3605743.994317474,-153.03400115451106,-4617.719385169103,6453.360279545757,0.9950316815036587,-4.6417548438117416e-05,0.0004372339253033734,0.09955781976272539
1.4000000000000001,1.1654137515096577e-05,0.0005863956618547958,-0.0068846352947032645,-40.504689430152965,44.12752504413306,4.697924013033461,-1659028.8538155262,5098684.850017029,3605776.2615173417,-152.7791639800545,-4617.71956986283,6453.519667744164,0.9950333906559454,-4.660123644461596e-05,0.00043871427893284805,0.09954072954242944
1.405,-5.550582115662362e-06,0.00059820889404418,-0.006845578940312102,-40.489930390769146,44.10807835045288,4.69716916382302,-1659029.6170745506,5098661.761418735,3605808.5295138564,-152.52444574097717,-4617.7197478449025,6453.678938135522,0.995035103119749,-4.672572239721824e-05,0.0004401750850986079,0.09952360334147858
1.41,5.4744050983974585e-06,0.0005840736285982501,-0.0068405031084265095,-40.482653245730404,44.070160058694086,4.691909638914436,-1659030.3790602451,5098638.672819565,3605840.798306569,-152.26983210996931,-4617.719920104888,6453.838146741306,0.9950368055556873,-4.689590284537935e-05,0.00044166100145862785,0.09950657428465524
1.415,5.937368690988187e-06,0.0005876866600150204,-0.006839026189877355,-40.45968866943407,44.04865006518406,4.684053306711633,-1659031.1397731171,5098615.5842196485,3605873.067894935,-152.01531672143457,-4617.720046568455,6453.997199741726,0.9950385064524377,-4.703513562547756e-05,0.0004431144981568485,0.09948955781457476
1.42,2.042360617504642e-05,0.000592240190733697,-0.0068659115127231865,-40.45267537636768,44.0211023029509,4.6783910809161515,-1659031.8992137522,5098592.495619014,3605905.338278358,-151.76093729836396,-4617.720207279265,6454.156169366717,0.9950402066848212,-4.7174113736357205e-05,0.00044457709781179174,0.09947254498823045
1.425,2.1768447576009196e-05,0.0006006235256895365,-0.006842414522331719,-40.43300789603358,43.99759391600641,4.686611773171912,-1659032.6573826852,5098569.407017628,3605937.6094563417,-151.50663584858253,-4617.720347078767,6454.315024163622,0.9950419133055421,-4.727821812115887e-05,0.000446054623987208,0.09945546523589588
1.43,4.954025552444307e-06,0.0005814453901388303,-0.00683369668432818,-40.413205398748296,43.96836959808601,4.684653652275257,-1659033.4142804742,5098546.318415645,3605969.8814284764,-151.25247980913258,-4617.720446428039,6454.473829755264,0.9950436137804308,-4.738103527689304e-05,0.00044755334161160484,0.09943844390287268
1.435,-1.938520524269774e-06,0.0006003080714712881,-0.0068083544266347796,-40.405541959572794,43.9470417386479,4.663322996221396,-1659034.1699078411,5098523.229813197,3606002.154194387,-150.99846691082686,-4617.720532526255,6454.632534534557,0.9950453118145953,-4.752090276269391e-05,0.0004490001724337162,0.0994214442482295
1.44,-9.619571680121394e-06,0.0006003345640570481,-0.006829707758399591,-40.39678536889196,43.91595225778913,4.67183490461446,-1659034.9242652673,5098500.141210178,3606034.4277534895,-150.74450362450685,-4617.720675078752,6454.79110644531,0.9950470032363359,-4.7682576164681634e-05,0.00045049221602434645,0.09940450761169117
1.445,1.4271142063978544e-05,0.0005938381572459205,-0.006843048808776635,-40.36317469224101,43.89317666492975,4.674225870759619,-1659035.677353153,5098477.05260665,3606066.702105231,-150.49065063819017,-4617.720736231059,6454.949590157105,0.9950486996722517,-4.7863387702394995e-05,0.00045198241401324325,0.09938751783576545
1.45,4.58166027834882e-06,0.0005887244419318819,-0.006834967926986623,-40.37366522932609,43.86120460994337,4.666975823884512,-1659036.4291722716,5098453.964002783,3606098.9772492633,-150.23699680528347,-4617.720810057881,6455.108022660123,0.9950503991403291,-4.7983169087341335e-05,0.0004534623857667122,0.09937049481688184
1.455,-1.0560886771957106e-05,0.000603442498927707,-0.006816847437640247,-40.35139011216486,43.83100733291131,4.669385877393539,-1659037.1797231343,5098430.8753987,3606131.253185079,-149.98334819974406,-4617.720823230647,6455.266303594431,0.9950520963124849,-4.812577472297271e-05,0.00045492723022333686,0.09935349188254212
1.46,-8.99935517406209e-06,0.0005938732457227405,-0.0068202834093222175,-40.33118934147487,43.812029362553425,4.669234292205006,-1659037.9290061574,5098407.786794621,3606163.5299120727,-149.72986114027793,-4617.720808742309,6455.424493944264,0.9950537886732684,-4.8309684519581705e-05,0.00045642492864798206,0.09933653401157763
1.465,5.846875557156864e-06,0.0005909036840461025,-0.006837068836951265,-40.31938353691445,43.78849701540441,4.658003951685239,-1659038.6770220678,5098384.698190603,3606195.8074298836,-149.47650295597225,-4617.720798244285,6455.582630413243,0.995055481607081,-4.8487337261753435e-05,0.0004578992095127018,0.09931956756345767
1.47,1.2177554546335363e-05,0.000573482543422106,-0.006816695671932753,-40.311673461244865,43.75519529989275,4.6563171461442305,-1659039.4237713998,5098361.609586588,3606228.085738101,-149.2232298547639,-4617.7208077562,6455.740656645641,0.9950571784217113,-4.86273398076447e-05,0.00045936978731474324,0.09930255931345915
1.475,1.2095690595736498e-05,0.0005983382403330789,-0.006816700298153979,-40.29611951668309,43.72803101475488,4.655388752657186,-1659040.1692546073,5098338.520982646,3606260.3648361336,-148.9700531761968,-4617.720768818076,6455.898556308314,0.99505886990739,-4.874724556367128e-05,0.0004607986015127147,0.09928560171033209
1.48,1.1628665363653152e-05,0.0005619757209544737,-0.006811773606113033,-40.2777967348804,43.69621080089207,4.655293426720209,-1659040.9134722357,5098315.432378953,3606292.644723431,-148.71699811992866,-4617.720708579695,6456.056362834137,0.9950605610744506,-4.8873524491449496e-05,0.00046228922745972267,0.09926864406371395
1.485,2.137968949753056e-05,0.0006040419025173243,-0.0068160398281952896,-40.26581714798292,43.68543607805648,4.651387766373006,-1659041.656424947,5098292.343775635,3606324.9253994934,-148.46408650790195,-4617.72061867698,6456.214061902131,0.9950622507699399,-4.8991935362038304e-05,0.00046368928069882083,0.09925169864895286
1.49,5.129686458172667e-06,0.0005817161365801834,-0.006812420642929237,-40.25175951509712,43.65576173994905,4.649631351147396,-1659042.398113282,5098269.255172715,3606357.206863956,-148.2112473475497,-4617.720549615153,6456.371723163464,0.9950639411855648,-4.9096531823694206e-05,0.00046519639896738546,0.09923474257583205
1.495,-5.623579940659784e-06,0.0005842061141086086,-0.006787950191615926,-40.2366571460131,43.617702476185656,4.647294766095685,-1659043.1385377164,5098246.166570206,3606389.4891164578,-147.95852650706416,-4617.720453632328,6456.5292775550015,0.995065630436321,-4.9236009812996296e-05,0.0004666439472203687,0.09921779549863471
1.5,-6.441800898863744e-06,0.0005745281424461809,-0.006803374999469166,-40.22179294349768,43.588475714371604,4.638096122186813,-1659043.87769889,5098223.077968283,3606421.772156377,-147.70594288387036,-4617.720315872027,6456.686690202911,0.9950673133233838,-4.940282738021879e-05,0.00046809502528874335,0.0992009092790521
1.5050000000000001,1.1368284692542168e-05,0.0005746015634925787,-0.006793851245284402,-40.19648133011549,43.56803102576575,4.628648020119817,-1659044.615597424,5098199.989367034,3606454.0559830465,-147.4534707893176,-4617.720183195442,6456.84397757789,0.9950689997577624,-4.956929828711902e-05,0.0004695218228121476,0.09918398466097633
1.51,-6.647738611503891e-07,0.0005792350990591938,-0.006808262612220487,-40.18982373394138,43.542113512504734,4.635739235662552,-1659045.352233954,5098176.900766332,3606486.3405959485,-147.20114112821466,-4617.720098163351,6457.001183193023,0.9950706835432409,-4.969147054591309e-05,0.00047095322021481977,0.0991670836851101
1.5150000000000001,-1.6979081089663014e-06,0.0006058702000952187,-0.006772551602135756,-40.175960688062126,43.50586846801429,4.622275785044696,-1659046.0876090596,5098153.812166224,3606518.6259946963,-146.94890116781747,-4617.719944861308,6457.158315845124,0.9950723706048664,-4.984474285296366e-05,0.0004723931592202549,0.09915014684313936
1.52,-1.0814648410951539e-05,0.0005823958802186593,-0.006788926963930982,-40.16438044903897,43.48197560926933,4.633990277317599,-1659046.8217232507,5098130.723566874,3606550.9121786905,-146.6967752828114,-4617.719795246304,6457.315281961754,0.9950740484940761,-5.000714526525785e-05,0.00047389910608282006,0.09913329880787675
1.5250000000000001,5.840545381407408e-06,0.000581565232376314,-0.006773644428778992,-40.141168833040766,43.45684574596897,4.611094211336788,-1659047.5545770978,5098107.634968451,3606583.1991473963,-146.44476350849035,-4617.71957382147,6457.47220026762,0.9950757301801697,-5.0186428926032696e-05,0.00047534439461330736,0.09911641002089974
1.53,1.7624404201206505e-05,0.0005656993083434526,-0.006790895475813724,-40.127438582506265,43.4332152283207,4.6224659627025595,-1659048.286171196,5098084.546370922,3606615.4869003426,-146.19287579137372,-4617.719437915643,6457.628978410796,0.9950774077943614,-5.032405563622139e-05,0.00047679174553738043,0.09909955920373702
1.5350000000000001,-2.288934593467763e-05,0.0005700860230174111,-0.006760949580830696,-40.117057589763675,43.401543295824084,4.615676851668714,-1659049.0165061627,5098061.457774235,3606647.7754370654,-145.9411109138803,-4617.719236548571,6457.785710582056,0.9950790894147474,-5.042845750031592e-05,0.0004782025440346802,0.09908266543051171
1.54,-5.282909049978538e-07,0.0005921071400943593,-0.006784697419945697,-40.09975364178434,43.367637902633376,4.613755783469032,-1659049.7455825522,5098038.369178604,3606680.0647571185,-145.6894448511569,-4617.71901593626,6457.942310590922,0.9950807633194291,-5.063469613176297e-05,0.0004796142234633384,0.09906584617287006
1.545,5.796729461728849e-07,0.0005655649219645625,-0.006774152386115099,-40.08651681776857,43.33690522162499,4.609238156157831,-1659050.4734009616,5098015.28058415,3606712.354859866,-145.4379188940947,-4617.718765897833,6458.098788562055,0.995082442794649,-5.079078943531404e-05,0.0004810862197643852,0.09904896777947339
1.55,1.7111474782870248e-05,0.0005858081983583409,-0.006776203979075919,-40.06977246495253,43.314423105867725,4.608289243262563,-1659051.1999620232,5097992.191990996,3606744.6457447046,-145.18650580245566,-4617.718495639043,6458.25514685522,0.9950841194028193,-5.0937541304783885e-05,0.0004824924623837647,0.0990321155923997
1.555,-1.0081310505308972e-05,0.0005908876383440254,-0.0067414154405645785,-40.059756739313194,43.28573628572765,4.599321309927739,-1659051.9252663157,5097969.103399213,3606776.9374111514,-144.93521116878435,-4617.718217262552,6458.411431805544,0.9950857962090643,-5.104818113677014e-05,0.00048395315695789603,0.0990152582504211
1.56,-1.58660001066658e-05,0.0005981569079895551,-0.006747692340784391,-40.03863300712826,43.25225718064976,4.60022432114211,-1659052.6493143574,5097946.0148088345,3606809.2298587067,-144.68400555032466,-4617.717934301675,6458.56759030834,0.9950874641079408,-5.122768410516707e-05,0.0004854197607773461,0.09899848745616135
1.565,5.303743537498864e-06,0.0005940476254750137,-0.00675309285710557,-40.03159071584552,43.22696821235895,4.605505985382304,-1659053.3721067715,5097922.92621995,3606841.523086781,-144.4329600293715,-4617.7176194999765,6458.723639486524,0.995089133265655,-5.142338447322839e-05,0.00048690301586277817,0.09898170102446413
1.57,-9.291155866258129e-06,0.000592471622215924,-0.006756453601211924,-40.0090134801286,43.19956162448783,4.591001445996028,-1659054.0936441775,5097899.837632787,3606873.817094913,-144.18200238651596,-4617.717245700321,6458.879613409994,0.9950908034818622,-5.156541008628007e-05,0.0004883812859013283,0.09896490110412862
1.575,1.1829798324443684e-05,0.0005802018477024959,-0.006742524172831021,-39.99189169396047,43.16947565715584,4.581581307701565,-1659054.8139271352,5097876.749047378,3606906.111882599,-143.93118073199147,-4617.716917703155,6459.035460785659,0.9950924742436437,-5.1743357990745936e-05,0.0004898520237434738,0.09894809281276266
1.58,1.0768698019642108e-05,0.0005877261579694456,-0.006728530925081169,-39.977794799510015,43.14301199573337,4.5873813821887675,-1659055.532956292,5097853.660463589,3606938.407449202,-143.6804818716264,-4617.716598172845,6459.191180492948,0.9950941412919927,-5.186571038859249e-05,0.000491297464041626,0.09893131912140642
1.585,-2.0757799195954608e-05,0.0006016454050450664,-0.0067352030849154075,-39.95454416457238,43.109590786208265,4.582716775554045,-1659056.2507322598,5097830.571881521,3606970.703794222,-143.42990531135226,-4617.716229272464,6459.346827343478,0.9950958045857595,-5.1992546296095525e-05,0.0004927613620663765,0.09891458021361244
1.59,1.4882493605774744e-05,0.0006001948435600806,-0.006723841705664083,-39.94556022226115,43.080540269425576,4.583900136104529,-1659056.967255751,5097807.48330131,3607003.000917168,-143.17949110309632,-4617.715854884224,6459.502351222325,0.9950974692241658,-5.2201262162198224e-05,0.0004942520904685356,0.09889782471601598
1.595,-3.025609011391952e-06,0.0005808800045209502,-0.006720398006726095,-39.92940628789078,43.056645141219015,4.576445758300082,-1659057.6825274157,5097784.39472309,3607035.298817483,-142.92917489154877,-4617.715432912869,6459.6577746374605,0.9950991307760754,-5.2320941418584534e-05,0.0004957480234557997,0.09888109741055441
1.6,-2.304110766731978e-06,0.0005603455541873817,-0.006713951743386035,-39.91508145063419,43.025805837870536,4.569500595743713,-1659058.3965477746,5097761.306146949,3607067.5974946697,-142.67896857884384,-4617.715023861993,6459.813100213551,0.9951007912150848,-5.2480392554225744e-05,0.0004971914793714767,0.09886437866872722
1.605,1.2034024685835592e-07,0.0005972209048729268,-0.006736987084490663,-39.88879436530539,42.99372390932878,4.566323768193536,-1659059.1093173884,5097738.217572873,3607099.8969481695,-142.4288769647953,-4617.714606018436,6459.968299636107,0.9951024498038012,-5.263296543953532e-05,0.0004985840296984429,0.09884767593732037
1.61,8.052616368830888e-06,0.0005911856601581081,-0.006710597781962554,-39.882044401053044,42.97004192717165,4.568750816502933,-1659059.8208369827,5097715.129000894,3607132.1971773887,-142.17896081339853,-4617.714186100998,6460.123388091663,0.9951041137559464,-5.278864818640863e-05,0.0005000689128602464,0.09883091586357702
1.615,-1.3272726130596473e-06,0.0005548749528012708,-0.006700805749196554,-39.863374288745156,42.93293447068224,4.564055529097946,-1659060.5311071964,5097692.040431124,3607164.498181858,-141.92912463279265,-4617.713721467069,6460.278399553488,0.9951057709131137,-5.2923073153669816e-05,0.0005015407450054634,0.09881422140282846
1.62,7.352673222372807e-06,0.0005785540010460176,-0.006705857581388936,-39.84923612241952,42.902810743436824,4.556246946687975,-1659061.2401285998,5097668.951863737,3607196.7999610296,-141.67943671008214,-4617.7132335651395,6460.433269192458,0.9951074254138785,-5.307185074663687e-05,0.0005029199286521053,0.09879755129094207
1.625,3.920966299206335e-06,0.0005800354522619867,-0.006715363374647357,-39.828336268735626,42.8826228183193,4.567350213566339,-1659061.947901842,5097645.863298799,3607229.1025142353,-141.42986021202506,-4617.712741514503,6460.58801296096,0.9951090808523289,-5.320488955988716e-05,0.0005043601633715357,0.09878086856926642
1.6300000000000001,-1.6356467173657002e-05,0.000576758334366494,-0.006686422257750171,-39.81089424673361,42.84657000113963,4.55842274751549,-1659062.6544275729,5097622.774736427,3607261.4058410916,-141.18043211947267,-4617.7122074638055,6460.742729641954,0.9951107383537683,-5.334684349826164e-05,0.0005058032347299891,0.09876416217545855
1.635,-1.9900534296654933e-05,0.0005670723573640525,-0.006685461311475159,-39.79500149181655,42.82058207481899,4.542592301531244,-1659063.3597065017,5097599.6861767415,3607293.7099411557,-140.93113942379279,-4617.711666738228,6460.897295927039,0.9951123884294364,-5.3538397400253155e-05,0.0005072331503578913,0.09874752777884559
1.6400000000000001,-3.156801378685071e-06,0.000556371429467199,-0.006702556287141417,-39.77510960352066,42.791601054898884,4.5495265693932705,-1659064.063739221,5097576.597619658,3607326.014813726,-140.68194832598343,-4617.711166547167,6461.051732111354,0.9951140379996276,-5.373637576566206e-05,0.0005086380944627205,0.09873089575085629
1.645,1.961101990745051e-05,0.0005739778018113273,-0.006673957407956684,-39.763019699021555,42.758921517895644,4.536938014796262,-1659064.7665263703,5097553.509065196,3607358.3204582883,-140.4329113736139,-4617.71061846561,6461.206092930157,0.9951156915245244,-5.3890079764122676e-05,0.000510020547327991,0.09871422114654207
1.6500000000000001,2.4167356794164276e-05,0.0005755011518456729,-0.006690147750108234,-39.74429984769572,42.726674163147344,4.541032142893323,-1659065.4680685864,5097530.420513462,3607390.6268742764,-140.18397502094422,-4617.710074971284,6461.360302429608,0.9951173376920452,-5.399145074015009e-05,0.0005114524236154777,0.09869761763101342
1.655,1.1266801729174341e-05,0.0005694259152441614,-0.00668912454265535,-39.72768162623825,42.70539143375942,4.533912027921104,-1659066.168366498,5097507.331964563,3607422.9340610686,-139.93518971114938,-4617.709484795903,6461.51441439226,0.995118987573347,-5.408188305542616e-05,0.0005128892116028962,0.09868097380348098
1.6600000000000001,6.992143466380677e-06,0.0005591975208734971,-0.00666379098364945,-39.709388688727586,42.67048428356073,4.5268376303159705,-1659066.8674207525,5097484.243418568,3607455.2420182056,-139.68651206323625,-4617.708913099581,6461.668440325697,0.9951206369278963,-5.4202909236091197e-05,0.00051430770302757,0.09866433251104133
1.665,1.6368379252248075e-05,0.0005846364989534441,-0.006686152550042986,-39.698078710396366,42.639746791750994,4.523528375971608,-1659067.5652319675,5097461.154875455,3607487.550745122,-139.4379739116071,-4617.708331740319,6461.822326322965,0.9951222797670036,-5.4332014385832234e-05,0.0005156996971342528,0.09864775422266849
1.67,-1.324800161884033e-05,0.000563522127288767,-0.0066786404745499284,-39.67644778256189,42.611842164858764,4.531628806313274,-1659068.2618007555,5097438.066335323,3607519.8602411733,-139.18954127679524,-4617.707721217891,6461.976094159138,0.9951239278102341,-5.4444095842223713e-05,0.000517157287655068,0.09863112025984723
1.675,-1.1835264168297567e-05,0.000565539247083218,-0.006654188037363842,-39.66918752210302,42.57241685664165,4.514208116805407,-1659068.9571277841,5097414.9777983595,3607552.170505898,-138.94127016031499,-4617.707064156749,6462.129795663738,0.9951255737446397,-5.462464115882533e-05,0.0005185550477697343,0.09861450499907551
1.68,-1.64912721660371e-05,0.0005814273023183428,-0.0066930283795330605,-39.64124892422447,42.55040653389744,4.5235698300634075,-1659069.6512136688,5097391.889264686,3607584.4815386394,-138.69308368658673,-4617.706405266212,6462.28330094015,0.995127213369824,-5.480213742561171e-05,0.0005199581775883402,0.09859795054172336
1.685,3.437358149925788e-06,0.0005787661756076617,-0.006673059098378108,-39.626735305244914,42.5161698034268,4.520021716549009,-1659070.3440590734,5097368.80073437,3607616.7933388227,-138.44507814362828,-4617.7057213206235,6462.436772412394,0.9951288622686133,-5.499518379024572e-05,0.0005213996808480226,0.0985812994328947
1.69,3.020822425523245e-05,0.0005768747878663526,-0.006645597832073285,-39.61335435054271,42.4893146126879,4.511775229246556,-1659071.0356647647,5097345.712207547,3607649.1059060376,-138.19719841951388,-4617.705007634537,6462.590113434549,0.9951305059722381,-5.513796937812632e-05,0.0005228394777722871,0.09856469795074915
1.695,1.6234142074167857e-05,0.00054517813008499,-0.006657001132598399,-39.586545250490786,42.45434959954531,4.507677771530832,-1659071.7260313113,5097322.623684285,3607681.419239671,-137.94942023101765,-4617.70429737835,6462.743339934261,0.9951321426373492,-5.521365173202907e-05,0.0005242811695476719,0.09854816472520679
1.7,-5.525547452175144e-06,0.000586662313026557,-0.006644585571720983,-39.58674043015317,42.427849207960826,4.503657780117604,-1659072.415159421,5097299.535164584,3607713.7333391244,-137.7018236524695,-4617.703582867199,6462.8964414099455,0.9951337818743965,-5.531630504413171e-05,0.0005256405608952049,0.09853160312543548
1.705,-1.5329614800296056e-05,0.0005798069039954333,-0.006662284357597219,-39.55489456810128,42.3956836026893,4.497009119178952,-1659073.1030496613,5097276.446648557,3607746.048203804,-137.4542723948293,-4617.702828232204,6463.0494305888415,0.9951354177185003,-5.5483295288470844e-05,0.0005270977995502352,0.09851507240894453
1.71,-6.742331805528198e-06,0.0005497331377215874,-0.006641929636952638,-39.540927112604706,42.367164421574486,4.500349644202054,-1659073.7897026348,5097253.358136246,3607778.3638331383,-137.20691708829577,-4617.702096133487,6463.202303037135,0.9951370576518236,-5.567301137366434e-05,0.0005285355658315052,0.09849849764713572
1.715,-2.0834105546220638e-07,0.0005647280027695296,-0.0066453989976482195,-39.52471186296902,42.33284960115731,4.490442431336862,-1659074.475119137,5097230.269627707,3607810.6802266133,-136.95968377178048,-4617.701319154564,6463.355087037059,0.9951386923365984,-5.583393118703882e-05,0.0005299006305865505,0.09848197349006994
1.72,1.5423293628986557e-05,0.0005460284990571362,-0.006644127269653412,-39.509274775315134,42.30489428747176,4.492370287280153,-1659075.159299786,5097207.181123057,3607842.9973836406,-136.7125757958223,-4617.7005407131355,6463.507723759894,0.9951403275801397,-5.598229182315089e-05,0.0005313046083368641,0.09846544066365874
1.725,-1.4444284267707314e-05,0.0005604767099761474,-0.006628123784077259,-39.49217404615851,42.267143978300425,4.491591981323743,-1659075.8422452093,5097184.092622388,3607875.315303629,-136.46559356763711,-4617.699727226592,6463.660271535423,0.9951419622611193,-5.608715844221806e-05,0.0005326659124813896,0.09844891095560925
1.73,-8.45877462817847e-06,0.0005347768648809913,-0.006634580037807225,-39.47353322090611,42.23627852960527,4.475822014968379,-1659076.5239560895,5097161.004125894,3607907.633986018,-136.21875849826134,-4617.69887016887,6463.812684316106,0.9951435927040491,-5.626986596124981e-05,0.0005340558126983764,0.0984324210723721
1.735,4.873290300105278e-06,0.0005800821072968257,-0.006639776707542754,-39.44863155361181,42.21466217027329,4.487675833555662,-1659077.2044331008,5097137.9156336,3607939.9534301027,-135.97204596096125,-4617.698047614315,6463.964949374918,0.9951452244955205,-5.64313667358199e-05,0.000535383247189422,0.09841591509527181
1.74,8.924464088718872e-06,0.0005400166297725271,-0.006615795344777282,-39.43583800114729,42.19263177957415,4.475687555500701,-1659077.8836769734,5097114.827145519,3607972.2736354424,-135.72550313823842,-4617.697184827737,6464.11718662024,0.9951468572308956,-5.657085299065359e-05,0.0005368266742563849,0.09839939613804488
1.745,1.132160467278503e-05,0.0005574260228445256,-0.006637295522248184,-39.41187157618389,42.14849909151035,4.475815136741943,-1659078.5616883456,5097091.738661681,3608004.594601704,-135.47904573422923,-4617.696350045569,6464.2693179221105,0.995148483846066,-5.669037221610115e-05,0.0005381714235640627,0.09838293681628332
1.75,-7.4884447618529844e-06,0.0005682589592417732,-0.006629291857833499,-39.39499385593363,42.11518699087506,4.473482708889046,-1659079.2384679068,5097068.650182138,3608036.9163282393,-135.23277879799838,-4617.695467375481,6464.421296308606,0.995150115451292,-5.6808238543839476e-05,0.0005395600715980203,0.09836642397197069
1.7550000000000001,2.8225486532514437e-06,0.000590195653448148,-0.006623622947778268,-39.380572668130895,42.083075048781325,4.470942936140097,-1659079.914016474,5097045.561707078,3608069.2388143633,-134.9866480865162,-4617.694556987349,6464.573153175925,0.9951517447953633,-5.697555510989331e-05,0.0005409710459207352,0.0983499310363654
1.76,-6.4947499044581445e-06,0.0005480008845980985,-0.006605045233016541,-39.36485702677434,42.05411294473402,4.468186163767119,-1659080.5883346947,5097022.473236641,3608101.5620594732,-134.74064014789275,-4617.693617448342,6464.724890819244,0.9951533724421989,-5.712260516658917e-05,0.000542439131963838,0.09833345216005773
1.7650000000000001,-7.265611658225017e-06,0.000537501683824773,-0.006615281382265489,-39.353973134795496,42.027052026083815,4.4570482052244,-1659081.2614231824,5096999.384770948,3608133.8860630062,-134.49475491834505,-4617.692659479107,6464.876522488043,0.9951549953037706,-5.728243747384703e-05,0.000543799954338912,0.09831701949451259
1.77,-1.7101022583416177e-05,0.0005564446997273249,-0.006610081419155079,-39.3296115149084,41.98789431223596,4.450995045767566,-1659081.933282461,5096976.296310023,3608166.210824384,-134.24895649708404,-4617.691710645528,6465.028028512264,0.995156620421876,-5.7441620873393755e-05,0.0005451344647962849,0.09830056133810096
1.7750000000000001,1.2330590018228418e-05,0.0005679382353000105,-0.006589899996263757,-39.3140093891402,41.95742824799489,4.452801699874461,-1659082.603913186,5096953.2078538705,3608198.5363429175,-134.0033334764437,-4617.690750528498,6465.1793848272855,0.9951582439610185,-5.762992187892177e-05,0.0005465136869535655,0.09828411610226813
1.78,-1.9880435308136078e-05,0.0005652758329090543,-0.006571995422711098,-39.29033320963318,41.92884327837324,4.446957352704033,-1659083.2733161224,5096930.119402618,3608230.8626179835,-133.75784114880182,-4617.689750313459,6465.3306416641535,0.9951598622570156,-5.7747796595250044e-05,0.0005479287382353797,0.09826772100688867
1.7850000000000001,-7.243414612580096e-06,0.000576889156293061,-0.006571486842974707,-39.26595459543185,41.89502824025256,4.445297160707366,-1659083.9414919817,5096907.03095634,3608263.189649067,-133.5125026037938,-4617.688760893043,6465.481791787152,0.9951614758820359,-5.794513049805476e-05,0.0005493292549025374,0.09825137047400276
1.79,-1.3559128051543686e-05,0.0005683507694730582,-0.006568903539063158,-39.25301269879344,41.85924037900742,4.437943710319926,-1659084.6084415775,5096883.94251505,3608295.517435612,-133.267335645685,-4617.687755162864,6465.632826161942,0.9951630890973687,-5.811387655857727e-05,0.0005507617683355731,0.09823502116065644
1.795,8.871799680223624e-06,0.000566369283288172,-0.006583195082912578,-39.23491563584277,41.83865144142033,4.4273510162141045,-1659085.2741656292,5096860.854078843,3608327.8459769567,-133.0222850730831,-4617.6867276524035,6465.783711615101,0.9951647014185813,-5.829623503705196e-05,0.0005521714882150838,0.09821867825756357
1.8,-6.690825295027483e-06,0.0005671928955065382,-0.006588745514575253,-39.21709281017855,41.79650510233377,4.438725309149252,-1659085.938664699,5096837.765647682,3608360.175272498,-132.77734286073863,-4617.685736686804,6465.934505018503,0.9951663169840654,-5.8422320511981156e-05,0.0005535817839388006,0.09820229974095125
1.805,4.871090097277558e-08,0.0005586610007106243,-0.006597356240160702,-39.191386049732415,41.76510572155639,4.428351932719561,-1659086.6019394922,5096814.677221727,3608392.5053217104,-132.53257433785768,-4617.684645436992,6466.085179972031,0.9951679336370178,-5.8587334354483756e-05,0.0005549903070645989,0.09818590740993074
1.81,8.132527118399732e-07,0.0005667657931135724,-0.0065713937292107534,-39.1741586623954,41.73325828561218,4.426909326566377,-1659087.2639908476,5096791.588801162,3608424.8361239745,-132.28796785866334,-4617.683580459051,6466.235725691299,0.9951695521440893,-5.873349842277094e-05,0.0005563792564257288,0.09816949362114467
1.815,8.19790770524418e-06,0.0005162631321435537,-0.006551735991173209,-39.14884417222367,41.69863635027081,4.4243438530646,-1659087.9248195111,5096768.50038599,3608457.167678685,-132.04349760033531,-4617.68248824079,6466.386158489778,0.9951711639965591,-5.887971334910407e-05,0.0005577885611904426,0.09815314439606145
1.82,1.2475039243151365e-05,0.000579593609670001,-0.006551732958401505,-39.13930683284172,41.66855794509324,4.415093008255933,-1659088.5844262636,5096745.411976311,3608489.4999852576,-131.7992033666717,-4617.681383263621,6466.536470444474,0.9951727708272508,-5.899513587066722e-05,0.0005590740337856578,0.09813684404855737
