t_s,gyro_x_radps,gyro_y_radps,gyro_z_radps,accel_x_mps2,accel_y_mps2,accel_z_mps2,ins_pos_ecef_x_m,ins_pos_ecef_y_m,ins_pos_ecef_z_m,ins_vel_ecef_x_mps,ins_vel_ecef_y_mps,ins_vel_ecef_z_mps,ins_quat_w,ins_quat_x,ins_quat_y,ins_quat_z
0.0,-9.12240130243008e-06,0.000662392282548269,-0.007310664797491966,-41.75122241623256,48.230486165750435,5.137769196198399,-1656201.7170614246,5097264.758841336,3591181.9960583495,-226.82286500164605,-4617.160284474699,6406.276788851849,0.9945218953682734,0.0,0.0,0.10452846326765354
0.005,1.318649797213797e-05,0.0006611998594096747,-0.007296444001280126,-41.767801478045115,48.22274987507581,5.136790697889709,-1656202.8505043392,5097241.67303112,3591214.027877139,-226.5543008340479,-4617.1638020865075,6406.450726887721,0.994523805632198,-1.9577818801002478e-07,1.6445251942271783e-06,0.10451028670952606
0.01,6.552664045088162e-06,0.0006579127876691491,-0.007309959154493502,-41.76923955748589,48.223948450704526,5.148566655581462,-1656203.9826042934,5097218.587203418,3591246.0605655177,-226.2856807955134,-4617.167278314815,6406.624624637411,0.994525711846305,-3.3577793776804076e-07,3.2919144355159906e-06,0.10449214547347975
0.015,-1.4944171080873453e-05,0.0006836448320235801,-0.007314523830574601,-41.76455223700818,48.22120110757834,5.14946618208234,-1656205.1133611766,5097195.501358436,3591278.0941234967,-226.01707254384655,-4617.170714465931,6406.79856703564,0.9945276212567672,-4.914129117114906e-07,4.929398012097745e-06,0.10447397059945525
0.02,1.8074219325439317e-06,0.0006544567977890665,-0.007326337088763551,-41.765427104149374,48.21932236474275,5.1379713643381,-1656206.2427751,5097172.415496257,3591310.128551197,-225.74849677967066,-4617.174157086772,6406.972512957706,0.9945295315239601,-7.072167546067699e-07,6.625245004259636e-06,0.1044557843412158
0.025,5.056991447712746e-06,0.0006667488516168822,-0.007313424449104679,-41.77696788143565,48.21459887099399,5.141237439528806,-1656207.3708461197,5097149.329616751,3591342.1638485454,-225.47991116508214,-4617.177645545227,6407.14642648737,0.9945314445406921,-8.737487605111697e-07,8.252895570237622e-06,0.10443756867588742
0.03,-1.9686280377626695e-05,0.0006472433668907609,-0.007341730367766865,-41.77519764835118,48.21526077240627,5.132569996179851,-1656208.497574128,5097126.243719904,3591374.200015432,-225.21129212714342,-4617.181093167472,6407.320328181322,0.9945333538500049,-1.035410382605264e-06,9.911956689604375e-06,0.10441938508027161
0.035,9.913448179874426e-06,0.0006578182805871271,-0.0073166137290247655,-41.79340165117602,48.20260895861978,5.141770489679652,-1656209.6229590434,5097103.1578057045,3591406.2370517976,-224.94267403093298,-4617.184586724902,6407.494217968434,0.9945352702125183,-1.25350085173323e-06,1.1516061401419593e-05,0.1044011310720455
0.04,1.254684345326945e-05,0.0006536909422121525,-0.007326951022903778,-41.79215960889899,48.20738633340152,5.138591417818795,-1656210.7470007655,5097080.071874277,3591438.274957529,-224.67401484111738,-4617.187984264836,6407.668074633087,0.9945371796827618,-1.400755744660784e-06,1.3154184612522108e-05,0.10438293947606306
0.045,-2.8696744413559175e-06,0.0006404358079290663,-0.007307733496214477,-41.793981759699996,48.20147960146068,5.14176334707653,-1656211.869699187,5097056.985925781,3591470.313732593,-224.40535371861984,-4617.191414403302,6407.841950971324,0.9945390915148463,-1.540386393978423e-06,1.4782733008164703e-05,0.10436472214269632
0.05,4.0676968964700455e-06,0.0006525440607149469,-0.007315829231046534,-41.800539879597125,48.199758107066515,5.139359221295642,-1656212.991054333,5097033.899960191,3591502.353377017,-224.13670468081443,-4617.194821426481,6408.015818790702,0.9945409979978586,-1.7148887357848198e-06,1.6374302248295195e-05,0.1043465525562056
0.055,-1.098832545613394e-05,0.0006414253183648752,-0.007311821843166869,-41.799564466076085,48.194881708239095,5.136713112906712,-1656214.111066174,5097010.813977569,3591534.393890753,-223.8680317097054,-4617.198227094942,6408.189675360158,0.9945429062573972,-1.8753012939689447e-06,1.7997786559683536e-05,0.10432836280538971
0.06,5.8089502483847915e-06,0.0006433819618044039,-0.007332668238839814,-41.80226514071689,48.19619177594775,5.140610378901705,-1656215.2297346883,5096987.7279779,3591566.4352737255,-223.59937397986005,-4617.201640704493,6408.363513711263,0.9945448131370517,-2.070248321316277e-06,1.958969879256393e-05,0.10431018298394874
0.065,-1.3073732984177789e-05,0.0006505705182217757,-0.007316618265085488,-41.79917104554695,48.19118605353662,5.141533947250518,-1656216.3470599034,5096964.641961191,3591598.477525945,-223.33071208663196,-4617.205043002923,6408.537374043669,0.9945467251170917,-2.223942504925912e-06,2.1190856152150967e-05,0.10429195129476518
0.07,1.6201642524257283e-05,0.0006753842667029787,-0.007300934558557491,-41.810619334288454,48.185896492268796,5.141865925035633,-1656217.463041883,5096941.555927475,3591630.5206474485,-223.0620797279733,-4617.208443267079,6408.711227448012,0.994548632575849,-2.426459385865141e-06,2.2804963702220032e-05,0.10427375947742056
0.075,-1.4271326361670735e-05,0.0006583809584259996,-0.007317568674359776,-41.818118617527865,48.18475495411464,5.137018322192466,-1656218.5776806113,5096918.469876834,3591662.564638164,-222.7934116074028,-4617.21181317464,6408.885058593349,0.9945505356100929,-2.5626544672292378e-06,2.4488399172462208e-05,0.10425560661867851
0.08,-3.3787166748455643e-06,0.0006684269245824433,-0.007340630797560732,-41.82291191098457,48.173695617538506,5.1389806765213,-1656219.6909759182,5096895.383809324,3591694.6094979933,-222.52471116146492,-4617.215190689995,6409.058873230366,0.9945524426458277,-2.7701861093509207e-06,2.6121615459867304e-05,0.10423741236813734
0.085,2.669712565265105e-06,0.0006389561866151423,-0.0073125653132168275,-41.825660680621084,48.170514307795514,5.138983381183631,-1656220.8029277395,5096872.297725017,3591726.6552268076,-222.25601737244492,-4617.218531988104,6409.232652499219,0.9945543553541903,-2.953253991455233e-06,2.7782648222779852e-05,0.10421916074030607
0.09,6.93993093526271e-06,0.000639364427273788,-0.007303676729408948,-41.8258576559659,48.16592706611119,5.138169450436952,-1656221.913536089,5096849.21162402,3591758.7018245007,-221.98732246954802,-4617.22186698506,6409.406424660995,0.9945562604159157,-3.113602655173022e-06,2.9371981462059648e-05,0.10420097885865298
0.095,8.977313875595928e-06,0.0006611205121553725,-0.00732412211749396,-41.824850448372665,48.16461576855736,5.135496905909186,-1656223.0228009936,5096826.12550635,3591790.749291022,-221.71863936474298,-4617.225200946416,6409.580183879445,0.9945581628276201,-3.263439581814069e-06,3.0963442208741055e-05,0.10418281904212603
0.1,-4.908314891892012e-06,0.0006618445103331596,-0.007286001302006411,-41.83466595289726,48.158710149265076,5.140417908595354,-1656224.1307225048,5096803.03937197,3591822.7976263296,-221.44996506005234,-4617.228551142345,6409.753939269512,0.9945600702276598,-3.4138788760510135e-06,3.2609527658450366e-05,0.10416460835483772
0.105,-1.5441749599930505e-05,0.0006488808647943817,-0.007289450759610896,-41.83411251747151,48.15832064608383,5.137532283728783,-1656225.2373005906,5096779.953220955,3591854.846830388,-221.18126930791897,-4617.231854832723,6409.927684173863,0.9945619673659897,-3.5990288286607278e-06,3.4253797594035094e-05,0.10414649241725092
0.11,-6.785375219392027e-06,0.0006379668622483513,-0.007307443969405953,-41.83976570592991,48.14926971996639,5.130949298676293,-1656226.3425352098,5096756.8670533765,3591886.896903169,-220.91257835669904,-4617.2351767416985,6410.101427991139,0.994563865070648,-3.806994163792971e-06,3.586309206439958e-05,0.10412836786908397
0.115,-1.542032809330908e-05,0.0006575914022399513,-0.0073217474050759936,-41.838217528577474,48.143758676315365,5.137357773875512,-1656227.4464263446,5096733.780869187,3591918.9478445384,-220.6438755522378,-4617.2384989062175,6410.275119920536,0.9945657671266903,-3.990596674794989e-06,3.7447503105433435e-05,0.10411019854681806
0.12,1.890494695138397e-05,0.0006624818511047248,-0.0072996655887603915,-41.848756329747815,48.14135385698415,5.134981117000786,-1656228.5489740416,5096710.694668457,3591950.9996543806,-220.3752032828698,-4617.241793058055,6410.4488168404705,0.9945676725684542,-4.200778381726646e-06,3.9078461263678905e-05,0.10409199362580884
0.125,-1.2577038153507526e-05,0.0006242900199227735,-0.007323012192651833,-41.846095497235545,48.134638911740176,5.139783879341277,-1656229.6501782762,5096687.6084512845,3591983.0523326634,-220.1064905537026,-4617.245075993803,6410.622496434066,0.994569571928814,-4.326883549092105e-06,4.07305118123065e-05,0.10407384357099189
0.13,-7.010488893092018e-06,0.0006558520176073588,-0.007295743733491536,-41.85887745959247,48.1309541535739,5.132492593742794,-1656230.7500390364,5096664.522217752,3592015.105879336,-219.8378134928912,-4617.24833674139,6410.796172622029,0.9945714770322875,-4.521331726758107e-06,4.227940988372322e-05,0.10405563543519852
0.135,-3.296285107573674e-05,0.000645194403863802,-0.007308915881223956,-41.857029664284234,48.12454525836529,5.1289323051094815,-1656231.848556275,5096641.435967916,3592047.1602942944,-219.5690819680592,-4617.251598125372,6410.9698106138085,0.9945733747042399,-4.710146702178146e-06,4.3908232982823654e-05,0.10403749506452635
0.14,-7.544668709517504e-06,0.0006371779991866809,-0.00731355408411656,-41.85236081862759,48.12531453069052,5.123918678568493,-1656232.9457299078,5096618.349701747,3592079.2155773765,-219.30037118098917,-4617.254869336995,6411.143422337111,0.9945752754689485,-4.9607199644268705e-06,4.550380641801976e-05,0.10401932191021125
0.145,1.9187487743526694e-06,0.0006263861512461719,-0.0072982017340227825,-41.859165642895576,48.119324249924404,5.142746981732578,-1656234.0415600329,5096595.263419128,3592111.2717285207,-219.0316787531876,-4617.25817834874,6411.317035249556,0.9945771771062056,-5.146008360878359e-06,4.7086057440884774e-05,0.10400113718547986
0.15,-8.111936706498825e-06,0.0006440923352794753,-0.00731189092332945,-41.86880543829369,48.10378864534065,5.141423962299297,-1656235.1360467204,5096572.177120201,3592143.3287478057,-218.76299628043333,-4617.261392072223,6411.490678777636,0.9945790744189285,-5.304958789633446e-06,4.864393584673398e-05,0.1039829905975617
0.155,9.41126687049673e-06,0.0006419231795894776,-0.0073006046460655965,-41.865025932158794,48.10568826719675,5.130839144735927,-1656236.2291899677,5096549.090805315,3592175.386635141,-218.49430270288443,-4617.264562301559,6411.664255420104,0.9945809749537475,-5.49345451097367e-06,5.024323200331462e-05,0.10396480993823237
0.16,-9.891219270307388e-06,0.0006359674604367203,-0.007308843594866702,-41.87307187244459,48.09929009999037,5.1333986524864486,-1656237.3209897603,5096526.004474428,3592207.4453903334,-218.2256143086898,-4617.267793016093,6411.8378215114535,0.9945828722212448,-5.637814410929069e-06,5.184168928687571e-05,0.10394665730456852
0.165,2.132520839598882e-06,0.0006394502138339999,-0.007306057999156822,-41.86698691305756,48.089886714446884,5.12649267812649,-1656238.4114460717,5096502.9181274725,3592239.505013312,-217.9569102087703,-4617.270989052039,6412.011370014724,0.9945847712960443,-5.8286224893121555e-06,5.342032172395968e-05,0.10392848415276605
0.17,9.520985048995186e-06,0.0006422004095369561,-0.007278827804490744,-41.878221207293855,48.08675752830085,5.133015153885801,-1656239.5005589647,5096479.8317644745,3592271.565503923,-217.6882469814657,-4617.274210032561,6412.184874376897,0.9945866693123333,-5.990438514903435e-06,5.501073794010547e-05,0.10391031789063518
0.17500000000000002,1.674386099071351e-05,0.0006463876217550385,-0.007306338509994376,-41.87680010870404,48.08003037842308,5.131564377120729,-1656240.5883284642,5096456.745385495,3592303.6268620663,-217.4195528811212,-4617.277381613043,6412.358382760436,0.994588559921481,-6.134594057859753e-06,5.6609912159750144e-05,0.1038922192996147
0.18,1.6131766170655884e-07,0.0006488090751379426,-0.0072939607201532785,-41.877307684115735,48.08009402651635,5.1300277877815565,-1656241.6747545486,5096433.658990659,3592335.689087696,-217.15088087009192,-4617.280553069503,6412.53186909676,0.9945904573423474,-6.26188156467829e-06,5.8221373323466064e-05,0.10387405226812324
0.185,1.3928612992710476e-07,0.0006410525062590588,-0.0073221292777137644,-41.874003230604494,48.074710177043485,5.12962191512689,-1656242.7598372754,5096410.572579935,3592367.7521807663,-216.88220981808027,-4617.283736278932,6412.705359070901,0.9945923512143914,-6.43102818158297e-06,5.9834549307545824e-05,0.10385591598121628
0.19,1.0424963696293041e-05,0.0006629059421750452,-0.0073031011942596155,-41.88371049489888,48.06145939614291,5.128369887425924,-1656243.8435767205,5096387.486153289,3592399.8161412566,-216.6135681726963,-4617.2869222113195,6412.878836992707,0.9945942520666947,-6.5982198770269735e-06,6.14284325381568e-05,0.10383770961892073
0.195,2.618899235433499e-07,0.0006490355770524563,-0.007325931047468841,-41.87943564192411,48.05495157974311,5.130080687366362,-1656244.9259729183,5096364.39971081,3592431.8809689926,-216.34491102668974,-4617.290069453363,6413.052257476827,0.9945961476411783,-6.745506485453582e-06,6.30793244193258e-05,0.103819550532761
0.2,-2.0454006759629714e-06,0.0006499181033746921,-0.007286642785244234,-41.88220303620153,48.05469102322968,5.134034707848669,-1656246.0070259268,5096341.31325261,3592463.9466638067,-216.07629240680413,-4617.293210494483,6413.225668121349,0.9945980488078828,-6.914467039205763e-06,6.469308955056557e-05,0.10380133464723237
0.20500000000000002,6.392443904598505e-06,0.0006375632176689197,-0.007307418931395736,-41.88341983639467,48.04804580444921,5.1284486155489875,-1656247.0867358386,5096318.226778743,3592496.0132257133,-215.80767226938613,-4617.296336277965,6413.399094519495,0.9945999394445109,-7.089387321784325e-06,6.630845098698085e-05,0.1037832164172282
0.21,8.811454554818504e-06,0.0006495001762030644,-0.007274016277520356,-41.89480852913226,48.04258672442124,5.129586518622537,-1656248.1651026618,5096295.14028922,3592528.080654663,-215.53905696408106,-4617.299472995947,6413.572485385622,0.9946018351403032,-7.24012477235502e-06,6.789528087812188e-05,0.1037650464913529
0.215,2.2803421552349877e-05,0.0006512063463276144,-0.007298567300422486,-41.89151484744083,48.03624195871246,5.128596218445752,-1656249.2421263228,5096272.053784098,3592560.1489505153,-215.27040743872675,-4617.302575904018,6413.745855651113,0.994603721836044,-7.38793826735791e-06,6.951242017517044e-05,0.1037469595859618
0.22,1.3474474568399269e-05,0.0006386148906848095,-0.0072973691076683835,-41.89214544314187,48.0297401375022,5.131708421941263,-1656250.317806812,5096248.967263454,3592592.2181131756,-215.00178825860584,-4617.305681588754,6413.919208303864,0.9946056145668273,-7.5014073951733424e-06,7.113743046349144e-05,0.10372881159706168
0.225,1.626442618617189e-05,0.0006316302765709395,-0.007314710320693894,-41.889698744572286,48.02369969889342,5.127663205748794,-1656251.3921442511,5096225.880727337,3592624.288142573,-214.73318743038726,-4617.308765438288,6414.092550856122,0.994607506655288,-7.634807623178864e-06,7.272871271776436e-05,0.10371066655458103
0.23,6.101831452680153e-06,0.0006432138401676059,-0.007318899955458676,-41.89610916367476,48.0110666098604,5.126823075724388,-1656252.4651387415,5096202.7941757655,3592656.35903862,-214.4646086973292,-4617.311863080043,6414.265867782171,0.9946094029069193,-7.759462787105173e-06,7.430335061188242e-05,0.10369247835761382
0.23500000000000001,-3.134972704497904e-06,0.0006458925314362895,-0.007293571692058283,-41.89483728655223,47.9994222460682,5.127489498295471,-1656253.5367903346,5096179.7076087855,3592688.430801124,-214.19602858377016,-4617.314928591174,6414.439133748579,0.994611299906965,-7.912391078418123e-06,7.590415674126989e-05,0.10367427970972566
0.24,-5.418699497238353e-06,0.0006432562600444629,-0.00730190854473669,-41.90207605764039,48.00394360883442,5.127627299813522,-1656254.60709911,5096156.621026529,3592720.503429867,-213.92748158995673,-4617.317974126938,6414.612363548902,0.9946131900071783,-8.08897641371109e-06,7.750922994012195e-05,0.10365614400812141
0.245,-1.535364288768248e-05,0.0006667972535319544,-0.007284170953900584,-41.896111986277056,47.97805751043936,5.1222442517258235,-1656255.6760650626,5096133.534429041,3592752.5769248107,-213.65889941456712,-4617.321021125713,6414.785613972864,0.994615081934625,-8.270558759409112e-06,7.910715596285148e-05,0.10363798754238215
0.25,1.1243411004530779e-05,0.0006208463172166381,-0.00726912822870992,-41.89991188750132,47.98069018040841,5.1228360387963345,-1656256.7436882851,5096110.447816365,3592784.6512857396,-213.39038958445704,-4617.324049137807,6414.958757531746,0.9946169689281832,-8.48294055871807e-06,8.076104379988568e-05,0.10361987514857901
0.255,-1.0792369982314006e-05,0.0006493725711602845,-0.007321085000098836,-41.91062914227982,47.97322495304722,5.127026363836774,-1656257.809968919,5096087.361188543,3592816.726512429,-213.12186398600065,-4617.327079583833,6415.1319182569605,0.9946188517030345,-8.61728103951812e-06,8.230756293502188e-05,0.10360180012019432
0.26,-1.2238976273431672e-05,0.0006437791567544481,-0.007295017161907399,-41.91688323057434,47.966527725186374,5.1124274694710445,-1656258.8749068656,5096064.274545692,3592848.8026048727,-212.85331469219938,-4617.330060960097,6415.305059317559,0.994620747595239,-8.813813644622907e-06,8.391930543165933e-05,0.10358359586804715
0.265,-1.9735735376803412e-07,0.0006536846240950651,-0.007297057600382541,-41.91400307252612,47.962476164692546,5.1220817562531735,-1656259.938501993,5096041.187887844,3592880.879562859,-212.58473622766112,-4617.333078334288,6415.4781351643705,0.9946226364034813,-9.012489374382458e-06,8.551676554771718e-05,0.10356545640051171
0.27,4.4699019818431525e-07,0.0006481121957442418,-0.007307739883575218,-41.906699297133585,47.95805725948834,5.111739242914837,-1656261.0007543229,5096018.101214996,3592912.957386277,-212.31619570161791,-4617.3360609442625,6415.651232109126,0.9946245254046457,-9.183788031092019e-06,8.71419738336204e-05,0.10354731182178406
0.275,1.564609688283415e-06,0.0006404704243083805,-0.00730456582477046,-41.90746901319934,47.95249624640762,5.119855571999418,-1656262.061664032,5095995.014527104,3592945.036075099,-212.0476879595719,-4617.339095873015,6415.824296536935,0.9946264168382194,-9.352044277267785e-06,8.875349246137429e-05,0.10352914064610734
0.28,-3.488303486484358e-06,0.0006461581741215843,-0.007286428353648425,-41.90798111818558,47.945870367733264,5.116866119910311,-1656263.1212312584,5095971.927824136,3592977.115629262,-211.77920261961472,-4617.342091126809,6415.9973685453415,0.9946283071175839,-9.515542916279182e-06,9.034629862960834e-05,0.10351097732805968
0.28500000000000003,-2.0675950799524013e-06,0.0006449887796948906,-0.007274877994251194,-41.90253127082279,47.944477987378775,5.119160248828267,-1656264.1794560864,5095948.841106187,3593009.1960487156,-211.51072853678605,-4617.345088583556,6416.170412973864,0.9946301923685369,-9.693073743017503e-06,9.195194061149097e-05,0.10349285907642257
0.29,6.96715412743722e-06,0.0006712199443347792,-0.007302155505003834,-41.91241625007645,47.93195704177701,5.121975674985964,-1656265.2363386317,5095925.754373237,3593041.277333425,-211.24228960241214,-4617.348091634061,6416.343470890904,0.9946320742992324,-9.866766652704386e-06,9.355504263799555e-05,0.10347476951077098
0.295,1.7311041369546675e-05,0.0006780233327037121,-0.007282725719551339,-41.90584555307199,47.92563385264591,5.116909697162107,-1656266.291878951,5095902.667625404,3593073.359483316,-210.97383815049838,-4617.351041200377,6416.516485521612,0.994633962947423,-1.002478596988682e-05,9.522570702605043e-05,0.10345661208000587
0.3,9.204484267933807e-06,0.0006354199154194118,-0.007285535339836342,-41.916216334563686,47.921002626177284,5.111053405927074,-1656267.3460771127,5095879.580862761,3593105.442498215,-210.70542644648128,-4617.354016403056,6416.689474050796,0.9946358462354833,-1.0158839343051383e-05,9.69159644307935e-05,0.10343850292573833
0.305,2.003449930101344e-06,0.0006412313013271925,-0.007302226160927891,-41.91295197387747,47.89953995113768,5.115999773548887,-1656268.3989331152,5095856.494085246,3593137.526377967,-210.43697456157943,-4617.356989287307,6416.862426677943,0.9946377299276952,-1.0302033990009596e-05,9.849818819145202e-05,0.10342038675356327
0.31,-8.327275084372204e-06,0.0006115986158547451,-0.0072718096120376234,-41.908948310188876,47.89456272326682,5.108117283533155,-1656269.4504470218,5095833.407293006,3593169.611122326,-210.16858804551308,-4617.359906952198,6417.035316927335,0.9946396176004633,-1.0464641334112632e-05,0.00010009300021406136,0.10340222904505952
0.315,1.1376739422311775e-05,0.0006359629277556782,-0.007268245894866077,-41.917969378085836,47.88854379591192,5.1074129935040915,-1656270.500619051,5095810.32048609,3593201.6967310593,-209.90022370377827,-4617.362859165879,6417.208176446157,0.9946414970849865,-1.0645269220127529e-05,0.00010161145784160426,0.10338414693910655
0.32,-7.075273017297816e-06,0.000650137096597504,-0.0072850057110272265,-41.91094127498947,47.882045996627724,5.110462443973734,-1656271.549449196,5095787.233664471,3593233.783204025,-209.63183430580833,-4617.365788427675,6417.38100992602,0.9946433753117818,-1.0783197330103507e-05,0.0001031955926261616,0.10336607365464949
0.325,2.1608298742250993e-05,0.0006575002601058259,-0.007277130939879893,-41.91119898606562,47.86737458922444,5.1047113494598495,-1656272.5969375253,5095764.14682822,3593265.8705411493,-209.36349737955118,-4617.36871186101,6417.553839614988,0.9946452575336816,-1.0970675510614176e-05,0.00010481020425214328,0.10334795866499587
0.33,7.340406436470817e-06,0.0006536040285120953,-0.007280866724874033,-41.90647387578801,47.85835038364106,5.110952129509801,-1656273.6430842285,5095741.059977365,3593297.958742252,-209.095183945541,-4617.371630498607,6417.726601556387,0.9946471373876127,-1.1088729097319161e-05,0.00010645053636972644,0.1033298632146146
0.335,-4.3946674443165e-06,0.0006596661814821281,-0.007290267093247943,-41.914165186541084,47.86158233952333,5.110174518638715,-1656274.687889492,5095717.973111988,3593330.0478071473,-208.82692138646138,-4617.374520190405,6417.899356444083,0.994649017875181,-1.1241255977410322e-05,0.00010807749416080666,0.10331175844417356
0.34,2.0318814876326963e-05,0.0006572665052260173,-0.007293377621981001,-41.913252322475834,47.85704204632304,5.110798542255605,-1656275.7313533523,5095694.88623216,3593362.137735848,-208.55862278345086,-4617.377411052899,6418.072123794327,0.9946509004560508,-1.1424531822146776e-05,0.00010971649501000964,0.10329363026701316
0.34500000000000003,-1.3008011856014681e-05,0.0006504876108602654,-0.007287786210671974,-41.914660110878486,47.84039913714247,5.10548101176551,-1656276.7734757657,5095671.799337888,3593394.2285283655,-208.29034261697507,-4617.380297539381,6418.244883329105,0.994652783508293,-1.1545735619461541e-05,0.00011135591049650476,0.1032754943138108
0.35000000000000003,-3.313375595624399e-06,0.0006415748784271718,-0.007284446006894962,-41.912427956186605,47.82511493855121,5.102773365048988,-1656277.8142568348,5095648.712429218,3593426.320184492,-208.02208494928408,-4617.383170616864,6418.417567377601,0.9946546647847341,-1.1748059174584288e-05,0.00011296986488046638,0.10325737223927939
0.355,1.6995459256564143e-05,0.0006555644150610439,-0.007293056442465227,-41.91827028126381,47.81767169089099,5.120347797503765,-1656278.8536967144,5095625.625506215,3593458.4127038904,-207.75386691923603,-4617.386030628646,6418.590191816751,0.9946565448691069,-1.1923973981139965e-05,0.00011456415920419124,0.103239258433615
0.36,7.905755817414634e-06,0.0006339726840106625,-0.007286181712307666,-41.925816611374486,47.806674023737976,5.107909457735429,-1656279.8917955419,5095602.538569141,3593490.5060864654,-207.48566409044955,-4617.388798908147,6418.762838293783,0.9946584268395369,-1.205300113454554e-05,0.00011619848186595034,0.10322112317610087
0.365,-7.513427981493524e-06,0.0006505289276765561,-0.007269535189385167,-41.913828515313995,47.796283107712675,5.101402506571376,-1656280.9285532944,5095579.451618188,3593522.600332079,-207.21743685209702,-4617.391582106423,6418.9354070493055,0.9946603067089936,-1.2199057355313383e-05,0.00011777676807937849,0.10320300498234887
0.37,-1.1543261706354136e-05,0.0006423816143082262,-0.007273684388214273,-41.9141052921281,47.800796033248645,5.106237214134607,-1656281.9639700842,5095556.364653237,3593554.6954404307,-206.9492791239831,-4617.394398469998,6419.107933717187,0.9946621819463343,-1.238772243103548e-05,0.00011939224609194206,0.1031849281522899
0.375,-1.188184389730239e-05,0.0006449348699585138,-0.007268454040085862,-41.918274387398846,47.78394997022729,5.102156038883909,-1656282.9980460906,5095533.27767421,3593586.7914115153,-206.6811233814172,-4617.397212082693,6419.280500025807,0.9946640579250074,-1.2584307849235861e-05,0.00012098642482975263,0.10316684097168834
0.38,-5.217050270357399e-06,0.000631140299499365,-0.0072891334364736105,-41.91593161461169,47.774218681497345,5.101309989955409,-1656284.0307813482,5095510.190681177,3593618.888245243,-206.412979677041,-4617.400001276325,6419.452991081134,0.9946659322226604,-1.2782392148385218e-05,0.0001225868654447502,0.10314876676285067
0.385,-1.0721416038762632e-05,0.0006362066665319167,-0.007274890984317856,-41.913543803472145,47.76386712363349,5.099961916958081,-1656285.0621759682,5095487.103674216,3593650.9859413463,-206.1448683414541,-4617.402782957475,6419.625450323895,0.9946678115254932,-1.296035244058107e-05,0.00012415472154790968,0.10313064109526532
0.39,4.6144645001003344e-06,0.0006314920619131774,-0.007256586642181573,-41.915328251100554,47.74334385515591,5.09097195528389,-1656286.0922301142,5095464.0166533645,3593683.084499657,-205.87679007104632,-4617.405557802346,6419.797873887771,0.9946696868223391,-1.315330209062824e-05,0.0001257337572796671,0.10311255081105729
0.395,1.6190615658766442e-05,0.0006459812056683152,-0.00729543384712692,-41.919486808814696,47.74746159481115,5.093148252441677,-1656287.1209439267,5095440.92961866,3593715.1839198307,-205.60873490158548,-4617.408324081258,6419.97019557629,0.9946715570719693,-1.3306895306624905e-05,0.00012730502319018632,0.10309450600483899
0.4,1.1129281073833587e-05,0.0006386426123984664,-0.007290637977852558,-41.91041444960412,47.731170412256695,5.091806752620591,-1656288.148317418,5095417.842570127,3593747.284201681,-205.34066163646904,-4617.4110891818245,6420.142544551638,0.994673436998053,-1.3435449088780944e-05,0.00012891530120784424,0.10307636455955506
0.405,-7.368791475635831e-06,0.0006402814305803815,-0.007268566398930834,-41.914981046904956,47.72643951677929,5.098825369868307,-1656289.1743507276,5095394.755507785,3593779.385345141,-205.07266219365331,-4617.413847572423,6420.314839470419,0.9946753153572571,-1.3574696169674919e-05,0.00013050602632400126,0.10305823500742693
0.41000000000000003,-2.3532769444287325e-05,0.0006445937090298955,-0.007281330123767452,-41.915931504871764,47.72304889573459,5.087055401380904,-1656290.199044046,5095371.668431754,3593811.487350087,-204.8046651747825,-4617.416564651627,6420.487139013335,0.9946771876966701,-1.3760357219658793e-05,0.0001320960614288201,0.10304016031201839
0.41500000000000004,-2.0262016871815023e-06,0.0006495630269060017,-0.007281336706810474,-41.90891424424948,47.70950128218428,5.090246848187333,-1656291.2223973596,5095348.58134203,3593843.5902164327,-204.53666021709623,-4617.419324982604,6420.6593991198315,0.9946790629904559,-1.398732817508802e-05,0.0001336926555158271,0.10302205384798505
0.42,2.782168931346391e-07,0.0006274127044144677,-0.007291965691345943,-41.9168775183033,47.69959767579771,5.0880962115515285,-1656292.2444108117,5095325.494238561,3593875.6939439983,-204.26872066577042,-4617.422062796928,6420.8316271857075,0.9946809379528254,-1.4162098669668699e-05,0.00013530714587603836,0.10300394732581243
0.425,1.3359641801620379e-05,0.0006315900056306486,-0.007257441625725322,-41.91055053460902,47.690056457938134,5.089114552296584,-1656293.2650845284,5095302.407121462,3593907.798532592,-204.0007659778227,-4617.424776620171,6421.003810356866,0.9946828153272219,-1.4325438425247354e-05,0.00013686714796632898,0.10298581433807985
0.43,-3.130640633580336e-06,0.0006392628055275654,-0.007273243904893872,-41.907721937322364,47.682497783120766,5.086780182123005,-1656294.284418602,5095279.31999081,3593939.9039820456,-203.73286353074747,-4617.427484226289,6421.175971090397,0.9946846834804695,-1.445731219855093e-05,0.00013844090697476955,0.10296776716263982
0.435,1.1043598493600081e-05,0.0006385052038372076,-0.007250213590278238,-41.9045309802388,47.67441276099407,5.091386493865021,-1656295.3024132352,5095256.232846609,3593972.010292236,-203.46498973594595,-4617.430196111175,6421.348105058209,0.9946865553676139,-1.4632173142348449e-05,0.00014002950048847668,0.10294968066268734
0.44,-1.9176606214529717e-06,0.0006291972290721563,-0.007249661623730967,-41.91209472652336,47.65104563516152,5.088993320838382,-1656296.3190685997,5095233.145688908,3594004.117463073,-203.19715607895733,-4617.432884483182,6421.520229850062,0.9946884209977662,-1.4771583719119976e-05,0.0001416198589410751,0.10293165139346853
0.445,5.659366959865826e-06,0.000646626822604133,-0.007291557660134484,-41.90289264746784,47.65036961783805,5.096857830864649,-1656297.334384823,5095210.058517897,3594036.225494285,-202.9293332255711,-4617.435519821108,6421.692254750543,0.994690286159435,-1.4940829918450197e-05,0.00014318373572086277,0.10291362346769654
0.45,1.1882492038389949e-05,0.0006377440259190847,-0.0072539321382378225,-41.905834572597044,47.63885721376746,5.0748512372242125,-1656298.3483620763,5095186.971333727,3594068.3343857084,-202.66156809599042,-4617.438148094067,6421.8643147109615,0.9946921617631651,-1.5095733477110832e-05,0.0001447929029549266,0.10289549132034691
0.455,1.201791802576944e-05,0.0006276521871772533,-0.007272900835912617,-41.910093397419544,47.61905998224215,5.085262177867954,-1656299.361000466,5095163.884136264,3594100.444137175,-202.39378776744755,-4617.4408372953585,6422.036271999016,0.9946940273602118,-1.523286317730995e-05,0.00014638158326890356,0.10287745270132842
0.46,-2.358813505409884e-05,0.0006466619843168188,-0.007247699109790984,-41.90315396546913,47.61070014378495,5.082405648295806,-1656300.3723000428,5095140.7969255755,3594132.5547483116,-202.12604294929622,-4617.44343795327,6422.208182488142,0.9946958975091119,-1.536706748890817e-05,0.00014794520191327678,0.10285936687833935
0.465,9.152469730105044e-06,0.000653303113636354,-0.007259172051034129,-41.90095092036721,47.606300997105116,5.08144852079626,-1656301.382261015,5095117.709701852,3594164.6662189304,-201.85834596985666,-4617.446051584268,6422.380064989643,0.9946977608387992,-1.5594693800771788e-05,0.00014954693785459958,0.10284134370377493
0.47000000000000003,1.9092244755173603e-05,0.0006356026558334062,-0.007273782122168696,-41.90012429134114,47.59681625187098,5.0790881099563,-1656302.390883557,5095094.622465048,3594196.778548935,-201.59067083024965,-4617.448670007041,6422.551936834462,0.9946996267872995,-1.5742614337808783e-05,0.00015117360580969163,0.10282329195234972
0.47500000000000003,2.5316188240514993e-06,0.0006300798110238944,-0.007283555898993349,-41.902048015940714,47.5730518397764,5.082791842516996,-1656303.3981677813,5095071.535215162,3594228.8917382075,-201.32301883701646,-4617.451284263278,6422.723772331107,0.994701496167674,-1.5861272616638363e-05,0.00015275881164354972,0.10280520383208397
0.48,-2.135994729435304e-05,0.0006547602382670718,-0.007257861985605573,-41.90118636288244,47.571267008850654,5.080814930752143,-1656304.4041138568,5095048.447952371,3594261.005786459,-201.05541141973984,-4617.453832151343,6422.895528175374,0.9947033677296333,-1.6019697378272382e-05,0.00015432602678758247,0.10278709137908737
0.485,3.226518889106868e-05,0.000641912298078378,-0.00724682671486305,-41.88565856590561,47.562070548692844,5.082927661695223,-1656305.4087219199,5095025.36067681,3594293.1206934797,-200.78781379567263,-4617.456392087097,6423.067280022286,0.9947052323473927,-1.624386684798286e-05,0.00015594847780801347,0.1027690427946496
0.49,4.613788135042089e-06,0.0006299647662503577,-0.007238560044198471,-41.894700096253636,47.547180021666755,5.082896793234562,-1656306.4119922302,5095002.273388428,3594325.236459234,-200.52031033842897,-4617.458961152352,6423.239021624165,0.9947070938075226,-1.6331378074826356e-05,0.0001575527569513714,0.102751021597877
0.495,-9.956319917340163e-07,0.0006365877778538445,-0.007262197785027337,-41.8943394996408,47.5423771822418,5.082090877784953,-1656307.4139250028,5094979.186087314,3594357.3530835453,-200.25279863776592,-4617.46148416992,6423.410703090813,0.9947089528190709,-1.648457959864185e-05,0.00015912022261934614,0.10273302093582602
0.5,1.9508500032424857e-08,0.000674301508795656,-0.007249320364336199,-41.8905477811109,47.53511725381938,5.081328552981541,-1656308.414520253,5094956.0987735875,3594389.470566231,-199.98530144036886,-4617.464006637283,6423.582371114893,0.9947108175693888,-1.6653440876129083e-05,0.00016070271650114878,0.102714961460042
0.505,2.0215984884228065e-06,0.0006414167322514656,-0.007236809997465026,-41.892682287714486,47.515037235342795,5.079894118576261,-1656309.4137781032,5094933.011447246,3594421.5889072055,-199.71783864787136,-4617.466529843384,6423.754018776399,0.9947126786678672,-1.6829456957480655e-05,0.00016237925718140905,0.10269693397148094
0.51,9.958684754347386e-06,0.0006432759042592225,-0.007267921191475386,-41.887663773798124,47.500440928039616,5.067622828863785,-1656310.411698715,5094909.924108384,3594453.7081062207,-199.45040616310175,-4617.469014878421,6423.925587169804,0.9947145362389922,-1.699204627965595e-05,0.00016397453509519745,0.10267893756009108
0.515,-6.076020659259166e-06,0.0006315860449157705,-0.007276784814451793,-41.886374883651726,47.49680867311002,5.0712365684327185,-1656311.4082822609,5094886.836757017,3594485.828162874,-199.18301212906434,-4617.471531723191,6424.097074261743,0.9947164014662935,-1.7135387756607606e-05,0.00016557647242557123,0.10266086374445761
0.52,4.72481531487661e-06,0.000629979419642156,-0.0072613401276188155,-41.88156789321541,47.478623768737094,5.076345442057512,-1656312.403528892,5094863.7493931,3594517.9490769743,-198.91564031426697,-4617.474035191434,6424.268565842244,0.9947182686412899,-1.7315607630409563e-05,0.0001671452237422691,0.10264276785978971
0.525,-1.7388573328590258e-05,0.0006327212198404991,-0.007259782653041436,-41.88520908690465,47.46527009410903,5.062723396850078,-1656313.3974388298,5094840.662016779,3594550.0708484137,-198.6483348260578,-4617.476493368595,6424.44001000668,0.9947201315232364,-1.7468549301370522e-05,0.0001687127518924122,0.10262471034430584
0.53,4.477260690727749e-06,0.0006208317675635883,-0.007219731900144127,-41.87983336741127,47.453635141869576,5.070288631630151,-1656314.3900122296,5094817.574628111,3594582.193476856,-198.38102502061795,-4617.478973733034,6424.611366827515,0.9947219936732591,-1.7677185332894668e-05,0.00017028142491393866,0.10260665667708958
0.535,-6.863022451796581e-06,0.0006396388013694936,-0.007244911880952108,-41.87717325972242,47.43574816629927,5.066744842202898,-1656315.3812492304,5094794.487227139,3594614.3169620484,-198.11377531613866,-4617.481415266695,6424.782710132945,0.9947238452273199,-1.7828378401448057e-05,0.00017182614185035726,0.10258870256563737
0.54,-4.692597263441633e-06,0.0006276914970766548,-0.007235756045779375,-41.87898542056353,47.43843384690427,5.062523846229316,-1656316.3711500952,5094771.399813996,3594646.4413037766,-197.8465706329694,-4617.483841814775,6424.9539811545665,0.9947257029030886,-1.801260687869791e-05,0.00017341471865800446,0.10257068580660728
0.545,3.624243922770321e-06,0.000640355890759008,-0.007257455151061095,-41.868120708122724,47.41886918000245,5.069498544848562,-1656317.3597149036,5094748.312388657,3594678.566501874,-197.57935272517636,-4617.48629393477,6425.125257732641,0.9947275579079248,-1.8188370328320722e-05,0.00017497414164905026,0.1025526917821719
0.55,1.7104634898958732e-05,0.0006444096753836522,-0.007229277569352971,-41.87864847057274,47.41077377922115,5.07029050765626,-1656318.346943868,5094725.224951165,3594710.692556247,-197.31223312300742,-4617.488702658895,6425.29649157486,0.9947294181418755,-1.834670770523135e-05,0.00017656718993517474,0.10253464375786116
0.555,-9.812067366601886e-06,0.0006443018955139849,-0.007233520088460773,-41.85932972750632,47.39098405041193,5.061837796748157,-1656319.3328371693,5094702.137501722,3594742.819466711,-197.04508728030626,-4617.4910746054165,6425.467693897989,0.9947312708229553,-1.847254841771627e-05,0.0001781737760201277,0.10251666576620035
0.56,-1.3994042825487819e-05,0.0006321496343691807,-0.007221238677632455,-41.871211210758645,47.386599267328535,5.062217353871855,-1656320.3173950328,5094679.0500403335,3594774.947232987,-196.77805822947758,-4617.493480786618,6425.638816581217,0.9947331242624697,-1.866530060442257e-05,0.00017977319529401844,0.1024986772023462
0.5650000000000001,-3.6893199640901865e-06,0.0006370664949405193,-0.0072634358672058995,-41.859033333817806,47.364795209714174,5.057414719063468,-1656321.3006176525,5094655.962566988,3594807.0758548295,-196.51098958272206,-4617.495857507325,6425.809920477115,0.9947349742328966,-1.8865333162370538e-05,0.0001813413228227336,0.10248071914903037
0.5700000000000001,7.178708134932062e-06,0.0006555721217039254,-0.007223935611406867,-41.86060925635634,47.35048250559147,5.058585290961995,-1656322.2825051616,5094632.875081757,3594839.2053319826,-196.24401405553124,-4617.498234807679,6425.980940694743,0.9947368346839734,-1.904101838226408e-05,0.0001829243158228404,0.10246265611940655
0.5750000000000001,1.1374853543357246e-05,0.0006347173090923756,-0.007230812610209126,-41.85346493285207,47.35248728280554,5.052162858617145,-1656323.263057857,5094609.787584725,3594871.3356641163,-195.97706413844475,-4617.5005780285355,6426.151912777941,0.994738684680034,-1.9194398801472768e-05,0.00018455611513183194,0.1024446912809605
0.58,-6.872217076984106e-06,0.0006412465010545196,-0.007231006756473829,-41.85734862752094,47.3361185302555,5.0646892349661705,-1656324.2422758662,5094586.700075849,3594903.466851121,-195.71013951237975,-4617.502972303367,6426.322889047217,0.9947405361198587,-1.9332006054859746e-05,0.00018613712600997807,0.10242670930582569
0.585,-1.792749378092104e-05,0.0006387432974515932,-0.007241116086916728,-41.846642899933684,47.317067941548736,5.049010631913131,-1656325.220159336,5094563.612555223,3594935.59889294,-195.44324843289374,-4617.505278241493,6426.493838615971,0.9947423872778772,-1.9516663053347312e-05,0.00018772970147872925,0.10240872682232113
0.59,3.621218831659105e-06,0.0006385192095618462,-0.007220775369015036,-41.85268425235068,47.31020038164904,5.048898977402563,-1656326.1967085195,5094540.52502295,3594967.7317892467,-195.1764249279569,-4617.5076308826065,6426.664684031527,0.9947442406966596,-1.972817679598303e-05,0.00018931322089347317,0.10239071916990254
0.595,3.886851597576939e-06,0.0006448495862223841,-0.00721431798448392,-41.846296387883605,47.28807592417689,5.053622373448084,-1656327.1719235615,5094517.437478967,3594999.865539717,-194.90959184298404,-4617.509962339917,6426.83550414034,0.9947460885822479,-1.9886034899608887e-05,0.0001909016999441765,0.10237276205810478
0.6,-1.464572887196627e-06,0.0006204624243900654,-0.007242283907989534,-41.833334271105926,47.28209754780191,5.057024414693319,-1656328.1458046378,5094494.3499234505,3595032.00014413,-194.64283872505004,-4617.512244148485,6427.006261017359,0.9947479344857467,-2.004484946735112e-05,0.0001925059900307222,0.10235482097091639
0.605,1.1542668070379544e-06,0.000633556693864004,-0.007222782175186334,-41.83553163719377,47.2640185042772,5.043678004600884,-1656329.1183521447,5094471.26235651,3595064.135602338,-194.3761640261596,-4617.514531970507,6427.177022029769,0.9947497872295042,-2.0210745424662908e-05,0.00019404826159510853,0.10233681030623352
0.61,-3.8436432045315025e-06,0.0006215655755160997,-0.007225094800160314,-41.83068720442588,47.25514135374377,5.051117338951813,-1656330.0895663055,5094448.174778098,3595096.2719140886,-194.10950031943673,-4617.516833009291,6427.347678464591,0.9947516346500157,-2.037346925349035e-05,0.00019562376789461995,0.10231884810427097
0.615,-2.7874138381409956e-05,0.0006427081691626295,-0.007228693530224261,-41.81827175820876,47.245455248306584,5.038752558474102,-1656331.0594472792,5094425.087188263,3595128.4090791144,-193.84288910427492,-4617.519100841201,6427.518331712308,0.9947534823408047,-2.0545556110973335e-05,0.00019716817509962407,0.10230088012052077
0.62,-1.5599747198309764e-05,0.0006088460013379109,-0.007193807493599553,-41.82272870152207,47.23423470733995,5.03942838026928,-1656332.0279953529,5094401.999586943,3595160.547097267,-193.57634035209364,-4617.521427249154,6427.688929480705,0.994755330613121,-2.0782813047327877e-05,0.00019875901537455017,0.10228290316425714
0.625,3.9830698187587276e-07,0.0006295796608222733,-0.007239519322094073,-41.826599488360216,47.218600508906185,5.034702742784449,-1656332.9952106986,5094378.911974068,3595192.6859683106,-193.3097979946211,-4617.523722648665,6427.859487792975,0.994757169656538,-2.0980868799862262e-05,0.00020026878461800715,0.10226501292783674
0.63,2.1503032559514906e-05,0.0006235795083461859,-0.007207580448463515,-41.81545371934296,47.20095829846264,5.043912396832062,-1656333.9610933578,5094355.824349763,3595224.825691965,-193.04326569666006,-4617.525999410084,6428.0299740761875,0.9947590200510319,-2.1144462804299264e-05,0.00020183420389221344,0.10224700896836322
0.635,1.167841165790769e-05,0.0006485316681814561,-0.007230771684579238,-41.81538367058609,47.19010698258521,5.038854912980835,-1656334.9256436029,5094332.736714193,3595256.9662679797,-192.77683228177443,-4617.528228885031,6428.200431862844,0.9947608619586755,-2.1254021651453586e-05,0.0002033900977615986,0.10222908439366801
0.64,2.53908653767544e-05,0.0006311513521830934,-0.007201790462393243,-41.818298379703165,47.18622388553256,5.040577262580447,-1656335.8888617272,5094309.64906747,3595289.1076961583,-192.51041750043441,-4617.530460039041,6428.370839463671,0.994762709453616,-2.1394402245822173e-05,0.00020500553300701268,0.10221110211474972
0.645,8.904342340810803e-06,0.0006229735286043137,-0.0072336002246133745,-41.81082089289174,47.16993887124917,5.036736547804015,-1656336.850747781,5094286.56140963,3595321.249976361,-192.2440040643737,-4617.532675979417,6428.541241638751,0.994764549226379,-2.149622523272861e-05,0.0002065812504222059,0.10219319186980265
0.65,2.691230223223816e-06,0.000638582056644527,-0.007211110612022622,-41.79593658259857,47.14476456112058,5.036433914569772,-1656337.811301926,5094263.473740711,3595353.393108418,-191.97765385115298,-4617.534891567998,6428.711581211024,0.9947663968029938,-2.1636975867739198e-05,0.00020813241651166119,0.10217520249222507
0.655,-7.201090818678308e-07,0.0006388404887932047,-0.007195711725235488,-41.791085120552864,47.137697434969574,5.0307398809634,-1656338.7705246124,5094240.386060763,3595385.5370919667,-191.71142070220915,-4617.537087778358,6428.8818382438785,0.9947682382996651,-2.1797153292752452e-05,0.00020972081378228181,0.10215726901324838
0.66,1.9381275901491774e-05,0.0006446819850908471,-0.00719832554006251,-41.79675325402432,47.118006128760534,5.029111005405144,-1656339.728416214,5094217.298369776,3595417.681926719,-191.44521991940263,-4617.539306667955,6429.052062687574,0.9947700755380973,-2.1965872368803996e-05,0.00021130898329094913,0.10213937379846402
0.665,3.846969362543886e-06,0.0006315303612241454,-0.007195127545523615,-41.7846755279991,47.105033121974984,5.02410567876039,-1656340.6849768448,5094194.210667806,3595449.8276123903,-191.17903245619559,-4617.541481679123,6429.222205803211,0.9947719131173803,-2.2086093794763387e-05,0.00021291681280859404,0.10212147203904912
0.67,-1.0545915374464236e-05,0.0006674580620282609,-0.007211349539183912,-41.794390416494714,47.091637772906296,5.0250908360366635,-1656341.6402067293,5094171.122954907,3595481.974148656,-190.91292131244626,-4617.543677943494,6429.39230035898,0.9947737495618004,-2.2241588582847218e-05,0.00021448796930264552,0.10210357820849977
0.675,-4.675527374388633e-06,0.0006314290164865779,-0.007181849697763553,-41.79307968545627,47.080232586238495,5.034168254578835,-1656342.5941060258,5094148.035231147,3595514.1215352644,-190.64679729094823,-4617.54582612346,6429.56234304307,0.9947755898017417,-2.244205708902898e-05,0.00021614480074608552,0.102085644007256
0.68,-1.9689014765477738e-05,0.0006471507728497464,-0.007190050952054101,-41.78189508325939,47.06623966848293,5.0303396816006725,-1656343.5466748103,5094124.947496777,3595546.2697720565,-190.38071657800452,-4617.547921536795,6429.732373863634,0.9947774222080763,-2.2618715229799346e-05,0.00021771352994236472,0.10206778313585282
0.685,1.4506303017907466e-06,0.0006323002510307224,-0.007222485016820174,-41.774096397259775,47.0453470169783,5.038932816754259,-1656344.4979133806,5094101.8597519,3595578.4188588774,-190.11471150695408,-4617.550029404252,6429.902354476749,0.9947792563741203,-2.2836727234774394e-05,0.0002193175267412977,0.10204990184247385
0.6900000000000001,4.800751912792792e-06,0.0006331499053027036,-0.007199289959577259,-41.771809452414374,47.02496442404725,5.02751851977839,-1656345.4478221477,5094078.771996631,3595610.5687954854,-189.8487953461722,-4617.552078016665,6430.072288772477,0.9947810984988291,-2.2998395078940343e-05,0.00022088998238589878,0.10203193984313177
0.6950000000000001,3.0626167078378866e-07,0.0006302888088785011,-0.007198970119795774,-41.774392910191494,47.019036838268484,5.017118154819065,-1656346.3964014282,5094055.684231096,3595642.719581503,-189.5829168278743,-4617.554136093369,6430.242118275184,0.9947829343808949,-2.3151935242231857e-05,0.0002224654068903265,0.1020140354934883
0.7000000000000001,1.825787734240437e-05,0.0006361709243346828,-0.007176953290614232,-41.75867569544828,46.992327886824455,5.016237186386664,-1656347.3436512933,5094032.596455199,3595674.8712165495,-189.3170292307524,-4617.5562227071705,6430.4119003761525,0.9947847698580086,-2.331592314557622e-05,0.00022403256966319258,0.10199613190863903
0.705,-2.8315985800377627e-05,0.0006284854379594427,-0.007195474302657867,-41.7617882695439,46.99124055994991,5.013149831317827,-1656348.2895720275,5094009.508668916,3595707.0237002824,-189.05126439283802,-4617.558290345057,6430.581592711252,0.9947865993950672,-2.3436753608020487e-05,0.00022561893973208446,0.10197828303521621
0.71,2.468581597203327e-06,0.0006392764111687601,-0.007188888491706605,-41.76521174766388,46.97902941774761,5.021988539076393,-1656349.2341639102,5093986.420872272,3595739.177032457,-188.78548870707206,-4617.560367654477,6430.751277279326,0.9947884333320167,-2.3671462765143104e-05,0.00022717432128877693,0.1019603880942073
0.715,4.6610154385971e-06,0.0006183513664707147,-0.007190214525648036,-41.75525773994661,46.96769907316009,5.011600233340201,-1656350.1774269724,5093963.333065398,3595771.331213006,-188.51973621599043,-4617.562381583514,6430.920942006744,0.994790265261817,-2.38323584748465e-05,0.00022876438701562222,0.10194250948057774
0.72,2.3691622598527714e-07,0.0006296690564286822,-0.007200941478597216,-41.7431489173351,46.94106217248978,5.0076292498879615,-1656351.1193614146,5093940.245248351,3595803.4862417304,-188.25404060274113,-4617.564437362972,6431.090547949808,0.9947920972178268,-2.398246952664139e-05,0.00023030297126759827,0.10192462753594131
0.725,1.0499764415781674e-05,0.0006335711379107646,-0.007196616040666614,-41.7350766564221,46.933554302900525,5.0135660782670834,-1656352.0599676347,5093917.15742106,3595835.6421182323,-187.98844745756205,-4617.566479077614,6431.260052717847,0.9947939315760685,-2.4146473272408658e-05,0.00023186857436099977,0.10190671888222232
0.73,-2.402822656002649e-06,0.0006454009892703952,-0.00718267444158443,-41.735724914723995,46.90985091630313,5.013661630844759,-1656352.9992460452,5093894.069583604,3595867.7988422597,-187.72291678133436,-4617.568503203942,6431.42955828587,0.9947957645060053,-2.4285945076012747e-05,0.00023344649669024365,0.1018888209463565
0.735,4.571968370911182e-06,0.0006134256180586867,-0.007187317282940557,-41.72806708092435,46.898788046249116,5.010328908419833,-1656353.9371969155,5093870.9817361515,3595899.9564135936,-187.45743132032146,-4617.570477734869,6431.598975263977,0.9947975935530907,-2.4460510656605946e-05,0.0002350505539315411,0.10187095765673428
0.74,1.1887337073565176e-06,0.0006206874725265724,-0.007170920687981372,-41.722045990448024,46.885913360044356,5.008439705114164,-1656354.8738204963,5093847.893878802,3595932.1148319123,-187.19200099979443,-4617.57246218501,6431.7683523266505,0.9947994234783819,-2.4609589289968142e-05,0.00023657686457827248,0.1018530827851292
0.745,1.3895977119365795e-05,0.0006365525862049122,-0.00717646810363688,-41.72505913191986,46.868946116063334,4.997197984661317,-1656355.8091170578,5093824.806011538,3595964.2740970054,-186.92662360765237,-4617.574443372408,6431.937684769419,0.9948012489012443,-2.4768921423097223e-05,0.0002381203748964114,0.1018352486603346
0.75,1.1673912635099938e-05,0.0006290311778745462,-0.007201509246279632,-41.71066714735335,46.85956594335341,4.999937252184135,-1656356.743086752,5093801.718134354,3595996.434208523,-186.66125405480057,-4617.576430208304,6432.106922233755,0.9948030754053325,-2.4900692966029907e-05,0.00023970657649434717,0.10181740069754731
0.755,-1.60287965337812e-05,0.0006181910396880042,-0.007183960518967924,-41.708860882733696,46.84104154655507,5.004337615576202,-1656357.6757298235,5093778.630247227,3596028.5951662012,-186.39597455361408,-4617.57842069312,6432.276149227436,0.9948049079640272,-2.503609127301422e-05,0.00024127350504298027,0.10179949042590254
0.76,-1.3274629452576295e-06,0.0006267638604558431,-0.007171343212607577,-41.706765515401216,46.81452732371988,4.991977473829159,-1656358.6070466284,5093755.542350272,3596060.7569698812,-186.13074739394025,-4617.5803615131,6432.445322742195,0.9948067357373112,-2.5237617162990644e-05,0.00024280642475052236,0.1017816237823821
0.765,-1.5285790378524666e-05,0.000628031942757189,-0.007167277707873254,-41.705956118659195,46.8070047953335,5.0019595854237195,-1656359.5370374138,5093732.454443615,3596092.9196190974,-185.865566788973,-4617.582301030092,6432.614363676462,0.9948085599730642,-2.5404754310722123e-05,0.000244364406738992,0.10176378847583073
0.77,-7.233417433532107e-07,0.0006199778345442677,-0.007187450852425585,-41.68626440228376,46.78746459169895,4.998050778649938,-1656360.465702384,5093709.366527382,3596125.083113533,-185.60042128135174,-4617.584192022544,6432.783410521361,0.9948103828508288,-2.5606926237746558e-05,0.00024592199152368696,0.10174596325578197
0.775,-8.097389065116686e-06,0.0006451853709822149,-0.0071578242573066535,-41.69266468829447,46.77690868627082,4.9942089729214585,-1656361.3930419357,5093686.278601651,3596157.2474530376,-185.33539939232904,-4617.5861004822855,6432.952391455131,0.9948122105430999,-2.577084468876565e-05,0.0002474632483368968,0.10172808782315514
0.78,2.18003185893345e-05,0.0006173079411509975,-0.007185140959672412,-41.68141316323219,46.748819134027535,4.987404077122076,-1656362.3190563542,5093663.190666418,3596189.41263732,-185.0703680434428,-4617.587993163024,6433.12132129804,0.9948140303622942,-2.5959495069694736e-05,0.000249065323521952,0.1017102860427482
0.785,-9.704706948189162e-07,0.0006337845205508188,-0.007166129437973512,-41.66860325047405,46.741916967690806,4.989966952229072,-1656363.24374586,5093640.10272174,3596221.5786659615,-184.80543422912672,-4617.589877767416,6433.290135351444,0.9948158568245081,-2.6066717250292295e-05,0.0002506056669686877,0.10169241627498996
0.79,-1.241981213945223e-05,0.0006297205651110255,-0.007174539818586609,-41.67563087967005,46.73223180018395,4.985055006953309,-1656364.1671108922,5093617.014767623,3596253.745538668,-184.5405786519146,-4617.591769137761,6433.458947148007,0.9948176781190182,-2.6234748225008644e-05,0.0002521812004377562,0.10167459376985767
0.795,-3.035826663683951e-06,0.0006387792707215513,-0.007179976252103729,-41.668800317795416,46.709122721518376,4.990188327197097,-1656365.0891516083,5093593.926804076,3596285.913255305,-184.2757078348822,-4617.593649617662,6433.627707853953,0.9948195012309923,-2.6430226509207508e-05,0.0002537437157689141,0.10165675032229653
0.8,-4.030118701671456e-06,0.000621292345607684,-0.007169921129312867,-41.66398106195678,46.68797612782614,4.993044579644852,-1656366.0098681806,5093570.838831258,3596318.0818155813,-184.01092104120139,-4617.595477325819,6433.796402665661,0.9948213253966748,-2.6604672000544564e-05,0.0002553311449646864,0.1016388933145241
0.805,1.5100769076052269e-05,0.0006155225978694861,-0.007154717741744234,-41.649112560489264,46.66342615577124,4.984675028422606,-1656366.9292609901,5093547.750849411,3596350.251219167,-183.74620279133404,-4617.597261589904,6433.965031511842,0.9948231466959229,-2.6777140542838758e-05,0.00025687483118455313,0.10162106128322144
0.81,6.383008594136313e-06,0.0006484239138270788,-0.007175590371764167,-41.653000226036056,46.65736649905323,4.980452384757988,-1656367.8473304717,5093524.662858608,3596382.4214656395,-183.48158985019595,-4617.599059484406,6434.133557567774,0.9948249638163591,-2.6900553868443053e-05,0.0002584090288954917,0.10160326701889957
0.8150000000000001,1.368230023764287e-05,0.0006293603873615408,-0.0071733992460862655,-41.64166564128797,46.64328672202539,4.9855961781794305,-1656368.7640768716,5093501.574858814,3596414.592554663,-183.21697004606145,-4617.600858505894,6434.302051788274,0.9948267858950752,-2.7054019486787068e-05,0.00026002283836295057,0.10158542081360783
0.8200000000000001,-1.670080476047073e-05,0.0006299350798538436,-0.0071353640954205586,-41.64753694949213,46.627463536527245,4.976936448120851,-1656369.679500392,5093478.486850081,3596446.764486094,-182.95243813831567,-4617.602634607064,6434.470520575652,0.9948286071076278,-2.7184488404034866e-05,0.0002615910893814134,0.10156758002139663
0.8250000000000001,-1.3173431259820988e-05,0.0006271017117218761,-0.0071675424085030845,-41.64050644691171,46.60516643862842,4.9756605872444934,-1656370.5936012433,5093455.398832487,3596478.937259655,-182.68790243977418,-4617.6044028790175,6434.638903849961,0.9948304183391723,-2.7390643318756878e-05,0.00026315305735566646,0.10154983381241185
0.8300000000000001,-1.744098020224683e-05,0.0006094067336373262,-0.0071506738645085825,-41.62733813595276,46.59294081163579,4.980138922632312,-1656371.5063796043,5093432.310806115,3596511.1108749313,-182.4234419084506,-4617.606145854676,6434.80720670871,0.9948322374216261,-2.7587327227909976e-05,0.0002647088717501636,0.1015320075386779
0.835,-1.6030217200961878e-05,0.000635846085879464,-0.007123755243760504,-41.61403967736705,46.58105376635528,4.971767678895297,-1656372.4178358922,5093409.222771059,3596543.2853316762,-182.15907325683796,-4617.607876564153,6434.975491290967,0.9948340519126988,-2.779012218656172e-05,0.00026621959515400566,0.1015142231896503
0.84,1.7011851067532376e-05,0.0006350845973720724,-0.007134643719080453,-41.61087765240921,46.552406849630486,4.971542761359244,-1656373.3279705252,5093386.134727251,3596575.4606297123,-181.89477994500885,-4617.6096466916,6435.14372311175,0.994835859235572,-2.7996100458717843e-05,0.00026779643529369865,0.10149650575418241
0.845,-3.86612945955099e-06,0.0006183079980865697,-0.007153125829031545,-41.61076370773359,46.538368114970005,4.961600449344982,-1656374.2367838682,5093363.046674722,3596607.636768641,-181.6305572618402,-4617.611364856926,6435.3118484239585,0.9948376690055917,-2.8119714204654645e-05,0.0002693797648315557,0.10147876118353452
0.85,1.7074233570067238e-05,0.0006384040788930557,-0.0071405832633281395,-41.59942084576559,46.52158247070961,4.963377141450325,-1656375.144276143,5093339.958613568,3596639.8137480044,-181.36635269679164,-4617.6130965645,6435.479896839752,0.9948394831545293,-2.8291009720751484e-05,0.0002709160713222314,0.10146097062876042
0.855,7.685746636224339e-08,0.0006221631251482617,-0.007145526720607015,-41.597202593380324,46.5005287307671,4.968502526206735,-1656376.0504476163,5093316.870543796,3596671.991567495,-181.10223657645832,-4617.614812423335,6435.647899354261,0.9948412937898409,-2.841531340260486e-05,0.00027250767112335953,0.10144321122034076
0.86,2.1354590567743743e-06,0.0006395950959682405,-0.007121298945191151,-41.59480685279257,46.48971166616824,4.9667383769641145,-1656376.9552986578,5093293.782465588,3596704.170226844,-180.83818001019173,-4617.616470673864,6435.815840389587,0.9948431053689885,-2.857777583601079e-05,0.0002740545668861079,0.10142543949716439
0.865,-1.7058971344577693e-05,0.0006217606390500109,-0.007117787230075548,-41.58362369090667,46.46798696583995,4.968775677513002,-1656377.858829499,5093270.694379105,3596736.349725801,-180.57415645079914,-4617.618122332289,6435.983742371591,0.994844910474187,-2.8739521810157106e-05,0.00027564534146834116,0.10140772799591113
0.87,1.717549027831334e-05,0.0006385187884619883,-0.007106327647113715,-41.57648854807413,46.4509486777268,4.966857687952687,-1656378.7610404647,5093247.606284437,3596768.5300641046,-180.31022985046508,-4617.619745400234,6436.151578967356,0.9948467143823678,-2.894448267924607e-05,0.00027718689375919763,0.10139002521081811
0.875,-1.2138117065187317e-05,0.0006287401452384667,-0.007150666290804607,-41.57463615755925,46.44526953635965,4.950701504757752,-1656379.6619319606,5093224.518181678,3596800.7112414385,-180.0463685052162,-4617.6213579289115,6436.31935473421,0.9948485150597189,-2.9068538266820117e-05,0.00027877880384798566,0.10137235086980549
0.88,6.554255922271019e-06,0.0006116784033681164,-0.007135937722939702,-41.56495586956576,46.412729424511916,4.955283300570351,-1656380.5615041568,5093201.430070706,3596832.8932575043,-179.78250995937557,-4617.623031177653,6436.487071578947,0.9948503266600748,-2.9263053033486484e-05,0.0002803389609804371,0.10135456624189859
0.885,-7.072709545703722e-06,0.0006120217907149955,-0.007117585986937652,-41.556308167974834,46.40287965374858,4.9534898773940546,-1656381.4597573427,5093178.341951532,3596865.076111896,-179.518764422964,-4617.624637963762,6436.6546849922015,0.9948521342220685,-2.9406743971225963e-05,0.0002818614207950267,0.10133681820137326
0.89,1.079932964691577e-05,0.0006000829601234083,-0.007136912094204516,-41.546578126801194,46.38933855575832,4.94933828682875,-1656382.356691949,5093155.253824304,3596897.2598042795,-179.25507810862206,-4617.626253297535,6436.822268388134,0.9948539368154159,-2.958440100159217e-05,0.00028338128363442625,0.10131911578117855
0.895,-2.7362336120240435e-07,0.0006193417829066834,-0.007123803845300696,-41.533422749988326,46.367227498178906,4.960516703169118,-1656383.252308293,5093132.16568897,3596929.444334453,-178.99145948547397,-4617.627880221864,6436.989801058161,0.9948557439956666,-2.971459746337288e-05,0.0002848759784203108,0.10130136525017047
0.9,-6.023361033408054e-07,0.0006158775893445269,-0.0071150654455496825,-41.53335419114882,46.34956519407621,4.948390251073115,-1656384.1466068393,5093109.077545656,3596961.6297021904,-178.72795906281578,-4617.629445701493,6437.157293951924,0.9948575475232294,-2.9877201919729105e-05,0.0002864157692018195,0.10128364729523434
0.905,-1.5190265641752703e-05,0.000618830435273706,-0.007108018285382813,-41.53697482317829,46.3234742909655,4.944611694399917,-1656385.0395879375,5093085.989394479,3596993.8159071477,-178.46448022391246,-4617.63102491613,6437.324689036333,0.9948593485230732,-3.0039740500192182e-05,0.0002879468613637527,0.10126595104212262
0.91,-1.0860013618584665e-05,0.0006321326881660762,-0.007120978051761756,-41.520963059010235,46.31318725419546,4.953980249039097,-1656385.931251719,5093062.901235522,3597026.0029488015,-178.20103234109993,-4617.632558060361,6437.491972346399,0.9948611474187689,-3.0239303900184287e-05,0.00028948160497776636,0.10124827229437317
0.915,-2.0100962127461937e-05,0.0006138850979302116,-0.007134826308498381,-41.510720014031605,46.290626797482616,4.943422631629574,-1656386.8215985294,5093039.8130689515,3597058.1908268854,-177.93769176944718,-4617.63406983927,6437.659261162608,0.9948629492683909,-3.0431473746110372e-05,0.0002910505283325336,0.10123056127728647
0.92,3.6357987314045583e-06,0.0006277526662081445,-0.007111635383872028,-41.506580778863714,46.26430145287893,4.931439021724209,-1656387.7106288318,5093016.724894781,3597090.3795411508,-177.67442922813896,-4617.635598796716,6437.826445140462,0.994864754316926,-3.064201931735347e-05,0.00029257172724601015,0.10121281579312723
0.925,2.223904837070581e-06,0.0006343696881317281,-0.007125004145223482,-41.49192018496084,46.255095037553126,4.93025523797621,-1656388.5983429607,5092993.63671296,3597122.5690910136,-177.41122230768985,-4617.6371294287,6437.993499914072,0.9948665531711914,-3.079701968845273e-05,0.00029413342489082264,0.10119512793778628
0.93,-5.975495007341771e-06,0.0006015901048939036,-0.0071181544297991076,-41.48314356938643,46.23589661393011,4.93817026355949,-1656389.4847412691,5092970.548523436,3597154.759476098,-177.1481011506582,-4617.638679956466,6438.160533950852,0.9948683550850749,-3.095721552121507e-05,0.00029571122185498424,0.10117740680034082
0.935,-4.637050444449611e-06,0.0006439697585459781,-0.007107277131491482,-41.48641600506273,46.21218423275796,4.93366442578999,-1656390.3698241948,5092947.460326288,3597186.9506962514,-176.8850690889342,-4617.640179539684,6438.327527236035,0.9948701549722353,-3.11295082058453e-05,0.0002972054168446414,0.1011597026755937
0.9400000000000001,-1.1303082054679211e-06,0.0006568599408408942,-0.0070979838200808274,-41.4722950935664,46.20404654585297,4.923447029546617,-1656391.2535920283,5092924.372121734,3597219.1427511107,-176.62206427623312,-4617.641642085678,6438.4944166385885,0.9948719517601657,-3.130918163511258e-05,0.00029880535670923997,0.1011420255680712
0.9450000000000001,-6.507654647135424e-06,0.0006250875123454282,-0.007090510105494929,-41.47646204182933,46.17884895110023,4.930904203715566,-1656392.1360450122,5092901.283909725,3597251.335640312,-176.35912927689316,-4617.643161455263,6438.661263920086,0.9948737458725707,-3.148338556129534e-05,0.00030043824410582706,0.10112437153890015
0.9500000000000001,1.5534278060897587e-05,0.0006070653985211025,-0.007084680388378677,-41.4637384175314,46.16285052947268,4.921214735730364,-1656393.0171834242,5092878.195690343,3597283.529363557,-176.09623554745963,-4617.644591326715,6438.828034009574,0.9948755378034838,-3.166292589877587e-05,0.000301990748656073,0.10110673607270611
0.9550000000000001,1.6304360689691675e-05,0.0006285472425422545,-0.007103905515667373,-41.457501111901095,46.146733872084816,4.928146065192093,-1656393.8970075636,5092855.107463727,3597315.723920468,-175.8334201931164,-4617.646055037564,6438.994730336011,0.9948773279614735,-3.178308398306839e-05,0.0003035040006414705,0.10108911505892113
0.96,-1.2341599908810504e-05,0.0006312109322529869,-0.0070924109822693955,-41.44105555397061,46.121414392197146,4.931063406947728,-1656394.7755178032,5092832.019229906,3597347.9193107774,-175.57067567439844,-4617.647473493939,6439.16139349209,0.9948791226465318,-3.190677025167275e-05,0.00030507087511946464,0.10107144619419714
0.965,6.218616651500115e-06,0.0005957407172550037,-0.007098739822163645,-41.439301438438555,46.09546850086779,4.925946546092866,-1656395.6527146404,5092808.930989066,3597380.11553422,-175.3080592150835,-4617.648862335257,6439.327983407297,0.9948809141070956,-3.2102368971306117e-05,0.0003066371373190627,0.10105380590820845
0.97,-1.4323040855793126e-05,0.000633834305648857,-0.007074839252285227,-41.42225504154774,46.086932641594615,4.921546597377668,-1656396.528598528,5092785.842741356,3597412.3125903355,-175.04549573761375,-4617.650221669538,6439.49446281817,0.9948827068798217,-3.224284851882152e-05,0.0003081198662650292,0.10103614983769675
0.975,-1.544788917816488e-05,0.0006199379639477752,-0.007074862437759717,-41.42839762736823,46.06172319725904,4.919138082068422,-1656397.4031698254,5092762.754486752,3597444.5104787853,-174.78302333856402,-4617.651619982802,6439.660917134143,0.9948844932698557,-3.24440230687909e-05,0.00030969215504598346,0.10101855319364335
0.98,2.1940392299876005e-05,0.0006225167689506092,-0.007069660829140133,-41.41993523799205,46.05438831057631,4.908524732454757,-1656398.2764288106,5092739.666225293,3597476.7091992404,-174.52057064067995,-4617.652963588099,6439.827264920218,0.9948862793627334,-3.26444858911215e-05,0.00031122959651385524,0.10100095646207045
0.985,4.578422891438467e-06,0.000624249531002486,-0.00707815287834452,-41.4051668924078,46.03179391469968,4.909069584089409,-1656399.148375638,5092716.577956994,3597508.9087513224,-174.25816037253296,-4617.6543557869045,6439.9935679456685,0.9948880638298283,-3.275260308971772e-05,0.0003127828929829543,0.10098337260690152
0.99,-1.1987487031555607e-05,0.0006111097097584783,-0.007058514810613781,-41.395721314037246,46.00707046103618,4.910531690702552,-1656400.0190106956,5092693.4896817785,3597541.1091347444,-173.99586263842747,-4617.655730476827,6440.159800705453,0.994889850124466,-3.290434740915371e-05,0.00031433611524326856,0.10096576761174302
0.995,4.799138516684051e-06,0.0006278052225953602,-0.007073835647899545,-41.38970338053209,45.98297262070774,4.912376800191369,-1656400.8883344985,5092670.401399782,3597573.3103491277,-173.73365858017956,-4617.657068262734,6440.325952690371,0.9948916311580985,-3.309396274455965e-05,0.0003158524758586259,0.10094821144320083
1.0,6.767266606125517e-06,0.000605320376199479,-0.007095905154922911,-41.37970230460312,45.9652386008543,4.902440454676118,-1656401.7563474753,5092647.3131112065,3597605.512394071,-173.47153216299876,-4617.658362045843,6440.492024622409,0.9948934157336037,-3.3246051439614395e-05,0.0003174145971216517,0.10093061712184524
1.0050000000000001,4.151039012106472e-06,0.0006406926223770831,-0.007073043853155554,-41.380485758688856,45.94814110746413,4.901194247484321,-1656402.6230499926,5092624.224816099,3597637.715269164,-173.2094746743035,-4617.659681006876,6440.658012736689,0.9948952055813526,-3.338758891936751e-05,0.0003189212879969065,0.10091296787687459
1.01,1.7913971098266778e-05,0.0006189603387097944,-0.007062286168234761,-41.361379792092926,45.928236951855844,4.898368460996461,-1656403.4884422987,5092601.13651447,3597669.9189740336,-172.94744776721188,-4617.660970281649,6440.823934969008,0.994896989318675,-3.354453913775735e-05,0.00032051529984665435,0.10089537546063607
1.0150000000000001,4.9200928111149635e-06,0.0006156414883360843,-0.007072811736616907,-41.352700147095476,45.90379548626326,4.892904843773941,-1656404.3525247772,5092578.048206368,3597702.123508351,-172.68554364879083,-4617.662270379598,6440.989792015992,0.9948987700479891,-3.3661767259052816e-05,0.00032205873057922067,0.10087780976041301
1.02,8.341746514105742e-06,0.0006241921154110177,-0.007087584311832263,-41.349764093961,45.89110939559644,4.894134941404945,-1656405.2152979372,5092554.959891793,3597734.3288717046,-172.4237203353874,-4617.6635598981,6441.155549395567,0.9949005531204053,-3.3810485832315164e-05,0.0003235906285393608,0.10086021785951033
1.025,1.1094252965085185e-05,0.0006183285037543736,-0.007078313008160316,-41.341875180906335,45.860691674865286,4.893907582271053,-1656406.0767620867,5092531.871570824,3597766.53506375,-172.16193949071464,-4617.664827681818,6441.32126879338,0.9949023395970061,-3.3952861877926365e-05,0.00032514465547953163,0.10084258918016611
1.03,2.717720797276386e-06,0.0006175682043973775,-0.007062142752572715,-41.31960812452846,45.84930624622827,4.884912830289391,-1656406.9369175688,5092508.783243632,3597798.7420841176,-171.9002533925491,-4617.666048934522,6441.48687825858,0.9949041234268978,-3.408690593430422e-05,0.00032668479272624103,0.10082498352732384
1.035,1.6970290158379144e-05,0.0005912134480723949,-0.007050902537504689,-41.30846835855296,45.82641542469608,4.882796675757685,-1656407.795764905,5092485.694910182,3597830.9499324197,-171.63868097979773,-4617.667331347915,6441.652442476055,0.9949059028675734,-3.424157974656466e-05,0.00032822092877638376,0.10080741806928145
1.04,3.3422719400559275e-06,0.0006047774840587988,-0.007047899219937434,-41.313332961743626,45.80907297739227,4.889281310895234,-1656408.653304612,5092462.6065703565,3597863.1586083374,-171.37720188220257,-4617.668598588312,6441.8179246984455,0.9949076791864477,-3.435415252409865e-05,0.00032969510634104265,0.10078988052758776
1.045,-3.695385097137357e-06,0.0006105970405149507,-0.007067460664795534,-41.29750053744574,45.79029487067065,4.8881809543926344,-1656409.5095369802,5092439.518224369,3597895.3681115448,-171.1157453642086,-4617.669796683671,6441.983358210001,0.9949094544249807,-3.4504037159287556e-05,0.0003311995875535944,0.10077235043449158
1.05,1.4643003061836176e-06,0.0005878886949900125,-0.00706112852573181,-41.29981153079451,45.77260710314875,4.8892045222772955,-1656410.3644623363,5092416.42987239,3597927.578441773,-170.85439708230456,-4617.670994648058,6442.148733131401,0.9949112342741898,-3.467290868527555e-05,0.00033271676880114383,0.10075477166044962
1.055,8.372978002817061e-06,0.000610268148851217,-0.00706614994951763,-41.2830777157388,45.74959544365543,4.872024604002425,-1656411.21808102,5092393.34151453,3597959.789598718,-170.59307644285906,-4617.672149445521,6442.3140447997785,0.9949130122352036,-3.482322142550025e-05,0.00033417876818018377,0.10073720860222324
1.06,-2.913580464000459e-06,0.0006193940037931891,-0.007042978139434675,-41.27602626387906,45.72823370822454,4.872173094189687,-1656412.0703933488,5092370.253150757,3597992.0015819212,-170.33185504900555,-4617.673359628473,6442.47923645867,0.9949147911302424,-3.4961990625852134e-05,0.0003356981709440027,0.10071963301493672
1.065,5.860173782585917e-06,0.0006314199090172381,-0.007050328476301465,-41.26402659268589,45.7028581753795,4.878934607331892,-1656412.9213997582,5092347.164781006,3598024.2143909005,-170.07070876595267,-4617.674540827319,6442.644355258142,0.9949165638701822,-3.513111116019969e-05,0.00033723743230303576,0.10070211503969999
1.07,3.669405576055707e-06,0.0005988995217035074,-0.007053673036673017,-41.25683119737247,45.68856431639656,4.867350499665965,-1656413.771100719,5092324.076405484,3598056.428025307,-169.80967547766926,-4617.675667884767,6442.809407463892,0.9949183381400392,-3.528144258222015e-05,0.0003388088136808022,0.10068457874208149
1.075,3.28151399880675e-05,0.0006334509868644238,-0.0070552221405381825,-41.24750534853074,45.659796723708205,4.869137650835707,-1656414.619496633,5092300.988024243,3598088.6424847827,-169.54869015013972,-4617.6768286782835,6442.97438280944,0.99492011296752,-3.542904016107076e-05,0.0003402987553917644,0.10066703409874314
1.08,7.968860612114009e-06,0.0006311050118649557,-0.007048682533673371,-41.23687895242926,45.6446206955043,4.870414043528604,-1656415.4665878722,5092277.899637317,3598120.857768894,-169.28780553133228,-4617.677941677586,6443.139261652221,0.9949218878462283,-3.551284033706032e-05,0.0003418819717645172,0.10064948554291223
1.085,-3.0013747772337706e-06,0.0006151477862958407,-0.007050541139973797,-41.229372486581454,45.623089132032604,4.8792739086724515,-1656416.312374892,5092254.811244857,3598153.0738772955,-169.02700236507317,-4617.679042705863,6443.304098872332,0.9949236607674916,-3.565784487751805e-05,0.0003434531015429704,0.10063195324298585
1.09,-3.7394813702063566e-06,0.0006182292759486766,-0.007045969169253373,-41.223134422721905,45.58853018555416,4.859215091961869,-1656417.1568581173,5092231.722847047,3598185.290809761,-168.76628781071548,-4617.680080909009,6443.468887256531,0.9949254338576217,-3.582612285260205e-05,0.0003449817806044966,0.10061441629947168
1.095,1.5870313380677926e-05,0.000613668935652957,-0.007029622600222266,-41.21121205885977,45.578588927702086,4.864025672677118,-1656418.000037943,5092208.634444,3598217.5085657085,-168.50564246317307,-4617.681137763445,6443.633491957401,0.9949272054837363,-3.599700788162499e-05,0.0003465179389382439,0.1005968906967644
1.1,-2.303862998681161e-05,0.0006185102682755384,-0.007032793137997885,-41.194271715526824,45.55589027979139,4.858314969802016,-1656418.8419147478,5092185.546035698,3598249.7271446567,-168.24507946648413,-4617.682183418926,6443.798087200968,0.994928972694175,-3.6117956052609855e-05,0.00034804768732935,0.10057940570521517
1.105,7.95973930910393e-06,0.0006106817137315953,-0.007017966888833908,-41.188882072446155,45.52824374880662,4.858019432269245,-1656419.6824890233,5092162.457622138,3598281.946546364,-167.98463075130988,-4617.68324029339,6443.962595891994,0.9949307403843323,-3.633690340461932e-05,0.0003495796936850341,0.1005619128296179
1.11,7.065517524391272e-06,0.0006040967576762761,-0.007022599366292428,-41.18860886401231,45.507785787341994,4.859975502180315,-1656420.5217612511,5092139.369203407,3598314.1667703628,-167.72426034516727,-4617.684252051941,6444.127003499484,0.9949325040474951,-3.647676657561131e-05,0.0003511000222432631,0.10054445677411004
1.115,1.0916249201058423e-06,0.0005959950902966631,-0.007038977069007435,-41.17243855468639,45.493776097619794,4.855209022499258,-1656421.35973174,5092116.280779738,3598346.3878162247,-167.46393525581587,-4617.685215804036,6444.291341275934,0.9949342685720204,-3.661720282516667e-05,0.0003526037465304383,0.10052698916627928
1.12,2.4341819926885576e-05,0.0006152642003216429,-0.007029235617988972,-41.15954862256005,45.476445245830696,4.8511889813996545,-1656422.1964008447,5092093.192351185,3598378.6096836524,-167.2037065578582,-4617.686205423072,6444.455629759352,0.9949360369095188,-3.6770476486025e-05,0.00035408581629875523,0.1005094807963279
1.125,-1.0373751244110033e-05,0.0006162418864024525,-0.007014643912512786,-41.15465637682698,45.44719897284346,4.846826770036038,-1656423.0317690272,5092070.103917662,3598410.8323723637,-166.94356646917566,-4617.687203643856,6444.619854838295,0.9949378024743678,-3.6870752190570204e-05,0.0003556216578447324,0.10049199660301308
1.1300000000000001,-4.0238427891806456e-05,0.0006151295012848394,-0.007004963193653015,-41.142418227610484,45.42742975625442,4.839498856169527,-1656423.8658366937,5092047.015479233,3598443.055881902,-166.68350009865796,-4617.688168018618,6444.783960557421,0.9949395640603007,-3.705761012014435e-05,0.000357151210874743,0.10047454870386337
1.135,2.187870207340848e-06,0.0006127759637144848,-0.00699855099258485,-41.135596719714876,45.40249737812566,4.835274569647172,-1656424.6986042426,5092023.9270359455,3598475.2802117616,-166.42351952651654,-4617.6891470597575,6444.947983150724,0.9949413229048782,-3.7318463849473565e-05,0.00035867049620140186,0.1004571248797125
1.1400000000000001,-9.830797809494251e-07,0.000592963708710762,-0.007010778037262188,-41.126757867127964,45.38851204505795,4.835166061763229,-1656425.5300720758,5092000.838587814,3598507.505361484,-166.16361369861855,-4617.690105599348,6445.111905818381,0.9949430798379434,-3.747319155068204e-05,0.00036019458299590604,0.10043971693613049
1.145,-1.7381261090470555e-07,0.0006155372080541529,-0.007003506907938695,-41.117115659418886,45.35684039354896,4.841769693451377,-1656426.3602405533,5091977.750134908,3598539.731330714,-165.90377728036944,-4617.691056642473,6445.275786210735,0.994944839551386,-3.7630842694260974e-05,0.0003616685921453433,0.10042227855319732
1.1500000000000001,-2.5883807721384715e-06,0.0006072971149210087,-0.006999653281837445,-41.09652116754326,45.33524959453861,4.840735400648868,-1656427.1891101322,5091954.661677429,3598571.9581191093,-165.6440542707449,-4617.691934788622,6445.439571923606,0.9949465971114406,-3.779214151696458e-05,0.00036319895350485083,0.1004048582222939
1.155,1.7391973146425984e-05,0.0006341271572824572,-0.007022049864802044,-41.092268309720076,45.309609375722125,4.8313703226463955,-1656428.0166814325,5091931.573215554,3598604.185726268,-165.38446587507835,-4617.692815691967,6445.603291591092,0.9949483534042773,-3.795737438140508e-05,0.000364708212898831,0.10038744744874437
1.16,4.604258502199475e-06,0.000630894521431867,-0.007000004346219774,-41.07489197007582,45.296711371206335,4.822913140527979,-1656428.8429549355,5091908.48474929,3598636.414151727,-165.12493535218488,-4617.6936894124165,6445.766891952323,0.9949501149873398,-3.807966260273125e-05,0.0003662892207625965,0.10036998091474197
1.165,1.247067249041111e-05,0.0006173453118561715,-0.007000724472542127,-41.05994353783722,45.266613915328996,4.8264580419615175,-1656429.6679310235,5091885.396278545,3598668.6433950523,-164.8654998736559,-4617.6946084939955,6445.930438185337,0.9949518707322204,-3.82329273210627e-05,0.00036785898107641595,0.100352569197149
1.17,-2.288481054361733e-05,0.0006256263534082825,-0.007008273451672851,-41.05608956410294,45.24693345434399,4.822575103379254,-1656430.4916102604,5091862.307803322,3598700.873455878,-164.60619483336188,-4617.69548114892,6446.093891953876,0.9949536263638208,-3.836322668659126e-05,0.0003693970127164415,0.10033515565140866
1.175,-1.3135282693425711e-05,0.0006178207366736534,-0.006998567128098453,-41.038152775862706,45.2239327726346,4.823796457998916,-1656431.313993103,5091839.219323774,3598733.104333772,-164.34694220284914,-4617.696337855381,6446.25726562778,0.9949553835704524,-3.858355287580801e-05,0.0003709467731543646,0.10031772332930461
1.18,-1.0156738633863561e-05,0.0006173209037777663,-0.006997675030706993,-41.03146566184017,45.199279316735,4.823670121717218,-1656432.1350800027,5091816.13083998,3598765.336028365,-164.0878176682727,-4617.697179740284,6446.420571610782,0.9949571380435634,-3.877766158447471e-05,0.00037247956393905284,0.10030031511131442
1.185,-6.790069411874514e-06,0.0006146735249665437,-0.006970958609435111,-41.0214793370501,45.1827609280161,4.815092324063448,-1656432.9548714769,5091793.042352067,3598797.5685392693,-163.82877198778124,-4617.697985263877,6446.583790120805,0.9949588919868199,-3.896423530778491e-05,0.00037401185828682626,0.10028290907865609
1.19,-1.0419270381680222e-05,0.0006078138501613619,-0.007000676847818347,-41.01447585192768,45.15330380221585,4.824337858744447,-1656433.773367893,5091769.9538600715,3598829.801866078,-163.56979449480284,-4617.698813167971,6446.746933284498,0.994960638929175,-3.914174607766111e-05,0.00037553841408788363,0.10026556946664776
1.195,-2.040000569376166e-05,0.0006091567150782137,-0.0069798181510193425,-41.0130823696219,45.13447998190995,4.805352973100226,-1656434.590569674,5091746.8653641455,3598862.0360084004,-163.3109179074906,-4617.6995573523745,6446.90999589967,0.9949623930211069,-3.932659254364583e-05,0.00037704699438963885,0.10024815590670802
1.2,-4.162927335552978e-07,0.000628260692065047,-0.0069935300580970736,-40.993027182938846,45.104598893973396,4.810195866885116,-1656435.406477123,5091723.776864396,3598894.2709657345,-163.05206171817818,-4617.7003420406945,6447.0729376014115,0.9949641415770135,-3.953658202580805e-05,0.00037855641550057963,0.10023079420924369
1.205,1.4099759611122496e-05,0.000608152440168815,-0.006974252543198812,-40.98856388988162,45.086198819762764,4.812013070214368,-1656436.2210906777,5091700.688360826,3598926.506737567,-162.79336008110042,-4617.701086123238,6447.235795474714,0.9949658932467724,-3.970166379508294e-05,0.00038011836202852514,0.1002133983530201
1.21,-7.642568172960836e-06,0.0006093100964493968,-0.0069530502157193865,-40.97844799237428,45.06424761539967,4.806417512481986,-1656437.0344108741,5091677.599853621,3598958.7433235426,-162.5347185655677,-4617.70179595285,6447.398594865604,0.9949676398017318,-3.982558199970035e-05,0.0003816339295483794,0.10019605040538357
1.215,-1.6510197274666667e-05,0.0006191154231763048,-0.006962341571613168,-40.965123442710095,45.03311254796861,4.796319467754175,-1656437.8464380691,5091654.511342871,3598990.980723293,-162.2761593651325,-4617.70250413467,6447.561305252201,0.99496938073859,-4.000385222620055e-05,0.00038314693240058925,0.10017875518685072
1.22,-2.011133421220198e-05,0.0006211907976273724,-0.006968978457024707,-40.94823784770079,45.022611585695635,4.806039343370164,-1656438.6571727362,5091631.422828576,3599023.2189362547,-162.0177075484906,-4617.703213873621,6447.723879345668,0.9949711236887753,-4.020664460254507e-05,0.0003846821033362848,0.10016143683374831
1.225,-5.691852334343485e-06,0.0005801022696999175,-0.006949496884165967,-40.93071280327101,45.00552668255629,4.800597406355825,-1656439.466615424,5091608.334310787,3599055.4579621013,-161.75936751825535,-4617.703901779414,6447.886459323952,0.9949728679943814,-4.041892059870311e-05,0.0003862215340937814,0.10014410194451202
1.23,2.877634040495105e-05,0.0005959701113495558,-0.006950184384855272,-40.92947515444631,44.96964304972146,4.794365037575548,-1656440.274766679,5091585.245789498,3599087.6978006912,-161.5011344862077,-4617.704613784542,6448.04897656814,0.9949746071602861,-4.058502335461212e-05,0.00038766237184103793,0.10012681547405662
1.235,-9.657534956326335e-06,0.0006003881626808053,-0.006950975041295913,-40.907452314800516,44.94921202226207,4.797194746604733,-1656441.0816269354,5091562.157264772,3599119.93845148,-161.242968060871,-4617.705276459309,6448.211339046578,0.9949763461838896,-4.066936131428954e-05,0.0003891513076253859,0.10010952722802921
1.24,-6.1849842036900604e-06,0.0005828485296468441,-0.006950815141234162,-40.89960483099255,44.92605158371905,4.786887828137551,-1656441.8871967192,5091539.068736751,3599152.1799139576,-160.98494542670664,-4617.705932100076,6448.373652016602,0.9949780850945157,-4.085040774556745e-05,0.0003906416138596701,0.10009223702178154
1.245,-1.836165644548814e-05,0.0006054928913852864,-0.006953374752182313,-40.89465618736019,44.898953239857896,4.7936402999385415,-1656442.6914765602,5091515.980205428,3599184.422187728,-160.72699098902223,-4617.706597214462,6448.535855955317,0.9949798236799844,-4.1018427275746576e-05,0.00039208916005367944,0.10007494718123275
1.25,1.6766104276382284e-07,0.0005903259205710499,-0.0069655975917063285,-40.8901490120437,44.873457200795684,4.779250275778503,-1656443.4944668394,5091492.89167096,3599216.665272318,-160.469120704721,-4617.70718959876,6448.697980175921,0.9949815625796365,-4.1222403493702154e-05,0.00039358998612394754,0.10005765095294368
1.2550000000000001,-1.098509877928923e-05,0.0006183822754042224,-0.0069499196545768594,-40.86098452509072,44.85269303920726,4.779747962929309,-1656444.2961678975,5091469.803133498,3599248.9091671975,-160.21130256064868,-4617.707795339967,6448.859971702486,0.9949833042501729,-4.137650697420636e-05,0.00039505771867370863,0.10004032427372267
1.26,-6.205216370000573e-06,0.0006067149874920841,-0.006948281872606008,-40.8523689037271,44.825702161394744,4.77134969337266,-1656445.0965802984,5091446.714592967,3599281.153871906,-159.9536578340613,-4617.708417111897,6449.021911695251,0.9949850416674606,-4.156535389950729e-05,0.00039659245242209824,0.10002303657033135
1.2650000000000001,2.030002227088687e-06,0.0006148760583888388,-0.006943707410199942,-40.851101634416494,44.79627325186464,4.779036691160582,-1656445.8957046783,5091423.626049341,3599313.399386018,-159.6960940522654,-4617.709033571797,6449.183733057297,0.9949867783846401,-4.1739391915677904e-05,0.0003980993595235591,0.10000575290691184
1.27,1.854504097492282e-05,0.0005917655724567113,-0.006949862574060715,-40.835905033327144,44.78590869085154,4.771644876977721,-1656446.6935414216,5091400.537502855,3599345.6457090126,-159.4386032640708,-4617.709560688447,6449.345464813566,0.9949885136485239,-4.189498091748063e-05,0.00039962862629857487,0.09998848058287946
1.2750000000000001,-5.104191527974927e-06,0.0005982372756771309,-0.006944539285536774,-40.82776941674382,44.75283710646663,4.762590043400144,-1656447.4900909157,5091377.448953628,3599377.892840559,-159.18119441832724,-4617.71013018562,6449.507153698791,0.9949902501734748,-4.200371841542863e-05,0.00040110453392143425,0.09997119290358923
1.28,-1.252779558898765e-05,0.000612926973143395,-0.006940987590351083,-40.807590936745605,44.73346176688477,4.7672094723461464,-1656448.2853535877,5091354.360401597,3599410.140780186,-158.92387440158973,-4617.710681976851,6449.668697007926,0.9949919850566747,-4.217289491176218e-05,0.000402590629580462,0.09995391845850696
1.285,-2.376429539545465e-06,0.0005889013265924424,-0.006957542970343397,-40.79940736429905,44.71353062083933,4.767576671697246,-1656449.0793299994,5091331.271846847,3599442.3895274247,-158.66669025009398,-4617.711218309872,6449.830198505482,0.9949937187347575,-4.236420461899907e-05,0.00040411141077406024,0.09993665282377666
1.29,-9.206671779386467e-06,0.0006194702267007438,-0.006912149505802188,-40.78528364570183,44.686074889426806,4.7572881400485345,-1656449.8720206842,5091308.183289476,3599474.639082006,-158.4095836689569,-4617.711730106037,6449.9916341744965,0.994995456271848,-4.2524277068522396e-05,0.0004055749629067321,0.09991934596969827
1.295,1.3676285295205472e-05,0.0006021916107451065,-0.006935542276080654,-40.776809382726604,44.65710481796371,4.7584712048565905,-1656450.663426096,5091285.094729515,3599506.889443463,-158.15258111261156,-4617.712254232689,6450.152948533317,0.994997182136658,-4.2708929690281294e-05,0.0004071128533508125,0.09990215200476109
1.3,-1.9858939012969535e-05,0.0006127201131776301,-0.006924692988102731,-40.76254406875547,44.638150412234964,4.751218383050852,-1656451.4535467355,5091262.006167053,3599539.1406112416,-157.8956746524299,-4617.712730379146,6450.314162831877,0.994998913563521,-4.283236948607404e-05,0.0004086134758804356,0.09988489979886152
1.305,5.651455868944692e-06,0.0006089954999300971,-0.006909206654842754,-40.757068945464745,44.61059089231402,4.746785731798492,-1656452.2423830759,5091238.91760216,3599571.3925848957,-157.6388615000424,-4617.713226670453,6450.475298945577,0.995000641965876,-4.304184606140874e-05,0.00041013191491311943,0.09986767458345362
1.31,-1.3251474095599124e-05,0.0005911493818310936,-0.00690196391254902,-40.735562170422575,44.587217832021224,4.749312849399528,-1656453.0299355327,5091215.829034858,3599603.6453639497,-157.38212123155455,-4617.713694234076,6450.636322554126,0.9950023662084814,-4.3186919675798e-05,0.00041164745966671334,0.09985048783447267
1.315,-8.632883328110332e-07,0.0006304783996817574,-0.0069063680533733825,-40.724805117488216,44.56258716806005,4.752422811746044,-1656453.8162046538,5091192.740465253,3599635.8989479644,-157.12552722205106,-4617.714148028721,6450.797283288948,0.9950040883606378,-4.3374552114688165e-05,0.0004131138940873868,0.09983331909325145
1.32,-1.4528857207643762e-05,0.0006021312641600085,-0.006902592587362044,-40.70984734401916,44.54005227855469,4.751189888467747,-1656454.6011910574,5091169.65189348,3599668.1533365943,-156.86903420917247,-4617.714560892126,6450.958168807647,0.9950058112739624,-4.354118921635444e-05,0.0004146812511245828,0.09981613934965025
1.325,1.0876883131312713e-05,0.0006043308560049239,-0.0069052021488767296,-40.70156222110488,44.515577413302786,4.7460229421445685,-1656455.3848952723,5091146.563319669,3599700.408529464,-156.61265172697398,-4617.714963308247,6451.118978957235,0.995007532974231,-4.373474193795025e-05,0.00041617468442595217,0.09979896898485115
1.33,9.678076955150224e-06,0.0006118456980836557,-0.006901538913917956,-40.67716148194441,44.483316401813454,4.743327898543871,-1656456.1673177723,5091123.474743879,3599732.6645261347,-156.3563482279293,-4617.715352693916,6451.2796893429995,0.9950092550273919,-4.386564889644823e-05,0.00041767992750994446,0.09978179207208798
1.335,7.79716390524582e-06,0.0005922699118275924,-0.006882778588341837,-40.68139354970471,44.467634438863485,4.7343755636628435,-1656456.9484591756,5091100.386166162,3599764.9213260794,-156.10021316349108,-4617.715734344323,6451.4402884859155,0.9950109758600972,-4.400140868575253e-05,0.00041920356516626263,0.09976462424218323
1.34,-2.2598286279682502e-05,0.0005963784117731208,-0.006901164765175033,-40.66527391137319,44.4522475286834,4.7394835546145355,-1656457.7283199094,5091077.297586545,3599797.1789288074,-155.84408029238392,-4617.716112453135,6451.600802736108,0.9950126917364079,-4.413694519634522e-05,0.00042067804033395543,0.0997475030533828
1.345,4.629086688661129e-07,0.0005926850427361964,-0.006900176502204626,-40.65017385585166,44.41141205745328,4.725245645236566,-1656458.5069002563,5091054.209005079,3599829.4373340374,-155.5880584647277,-4617.716473920171,6451.761289280808,0.995014411892393,-4.434913520866023e-05,0.0004221551536953812,0.09973033613006502
1.35,-3.707370252552031e-06,0.0006053964786777632,-0.006919688305287759,-40.631056094877216,44.39576707143298,4.727918043863104,-1656459.284200812,5091031.120421808,3599861.696541235,-155.33216381859108,-4617.7168344102,6451.921589788207,0.9950161315100972,-4.450303775904821e-05,0.00042362882940305855,0.09971317161125565
1.355,-1.3594985549933451e-05,0.00061045966483444,-0.00687014996013749,-40.623078619733896,44.367925573006396,4.73070000938353,-1656460.060222199,5091008.031836739,3599893.9565498526,-155.07639100457706,-4617.717193406961,6452.081857190661,0.9950178556786693,-4.467050344141992e-05,0.0004251330834427281,0.09969595852907151
1.36,3.3402571606720538e-06,0.0006032641123614839,-0.006891389491991402,-40.61840029851972,44.33633279267483,4.73158665135397,-1656460.8349649566,5090984.943250006,3599926.2173595782,-154.82071201162773,-4617.7174996521835,6452.242033125956,0.995019567195877,-4.486377429185488e-05,0.0004266474734007246,0.09967886865582291
1.365,1.4265087217432036e-05,0.0005991500750410783,-0.006873353007387446,-40.596281926367375,44.30778882107093,4.7254923364034855,-1656461.6084295271,5090961.854661894,3599958.4789698967,-154.56511627232766,-4617.717745194478,6452.402094291684,0.9950212837187662,-4.501314742739127e-05,0.00042814818177509275,0.09966172590121826
1.37,2.029219467492119e-05,0.0006009915364282736,-0.006880920667364351,-40.588097528775926,44.291252041172264,4.715362756508639,-1656462.380616487,5090938.76607253,3599990.7413802524,-154.3096676449427,-4617.718000226529,6452.562047869584,0.9950229954566014,-4.513430011756138e-05,0.00042964138013324793,0.09964462797236862
1.375,1.66364341426061e-05,0.0005976422605183456,-0.006876286970232193,-40.56684002396438,44.26069490708608,4.720013008641732,-1656463.1515263484,5090915.67748183,3600023.004590172,-154.05427689747566,-4617.718279738183,6452.721919914791,0.9950247087819664,-4.524092687578805e-05,0.00043114065967279723,0.0996275111821694
1.3800000000000001,4.874673215548953e-06,0.0005815574649676987,-0.006873912035205508,-40.557588841641014,44.23263641961248,4.71592840733217,-1656463.9211596576,5090892.588889831,3600055.2685992355,-153.79904679246712,-4617.718519973528,6452.881705519381,0.995026420659934,-4.53558083561862e-05,0.0004326306975414375,0.09961040589321146
1.385,4.868428346217623e-06,0.0005898687996960583,-0.006874843086991733,-40.538767349413966,44.21076147884794,4.7067329066138655,-1656464.689517044,5090869.50029669,3600087.5334069505,-153.54390773314134,-4617.718736541522,6453.0413805532935,0.9950281316664317,-4.549593987906639e-05,0.00043407779457481593,0.09959330649696307
1.3900000000000001,-1.7138592615641474e-06,0.000596123330139953,-0.006876091545436612,-40.533365862510166,44.18473442311494,4.706110508258922,-1656465.4565990258,5090846.41170239,3600119.799012811,-153.28888502683057,-4617.71898339076,6453.20096366304,0.9950298425997037,-4.563815731660056e-05,0.0004355455648479552,0.09957620475409022
1.395,-1.2980762812315058e-05,0.0006230784069348488,-0.006883114932071418,-40.524141627027376,44.158661677310555,4.700821825090189,-1656466.2224060807,5090823.323106958,3600152.0654163477,-153.03393687915278,-4617.719189735253,6453.3604509632405,0.9950315535400374,-4.579830703746822e-05,0.00043702725486207224,0.09955909988239874
1.4000000000000001,2.5217934643953174e-05,0.0005911001043000863,-0.006860010401633494,-40.49720499025964,44.13303417756297,4.699052540952182,-1656466.986938609,5090800.234510529,3600184.3326170556,-152.7790745292635,-4617.719381672182,6453.519832346433,0.9950332659010869,-4.5993200787527025e-05,0.00043857319251465416,0.09954197751902102
1.405,6.614603318169628e-06,0.0006073195519474264,-0.0068428361133274105,-40.484951946381535,44.107860652811304,4.690776514147999,-1656467.7501972485,5090777.1459131185,3600216.600614472,-152.52438121319918,-4617.719582565803,6453.6791339776455,0.995034972255968,-4.608508879592634e-05,0.00044004908994086376,0.09952491256227279
1.41,2.143585040968428e-06,0.0005908023181795737,-0.006859036943608708,-40.481008618155506,44.08280178163446,4.703813296120312,-1656468.512182656,5090754.057314689,3600248.869408125,-152.26978182811894,-4617.719789037928,6453.838327453424,0.9950366740235218,-4.622727090782188e-05,0.00044156070777246517,0.09950789031724254
1.415,-1.8455722456388745e-05,0.0005852726197192613,-0.006856425070528315,-40.46023167537196,44.052305347692645,4.694783786281076,-1656469.2728952763,5090730.968715466,3600281.138997609,-152.0152662356033,-4617.719900363772,6453.997466022139,0.9950383795449458,-4.637648397034781e-05,0.00044303012321387586,0.09949082774859248
1.42,-1.782296670258083e-05,0.0005972028060758873,-0.006879075171384858,-40.44787944703655,44.01962429830831,4.692834553299697,-1656470.0323356702,5090707.8801156515,3600313.409382473,-151.76089136778776,-4617.720025429338,6454.156479652669,0.9950400841258413,-4.6575561494482996e-05,0.00044448065956606087,0.0994737716712255
1.425,1.369646434321699e-05,0.0006114654308758268,-0.006834239561493362,-40.42680533927536,43.99666880038602,4.681308143604288,-1656470.7905044795,5090684.791515302,3600345.680562103,-151.50663239332923,-4617.720114098755,6454.3153723533405,0.9950417940307787,-4.6776056981868775e-05,0.00044596102803948326,0.09945665921782935
1.43,-1.4569984927952977e-05,0.0005946520260892462,-0.006839364030456388,-40.41814142086093,43.97500284351329,4.685543593769928,-1656471.5474023076,5090661.702914407,3600377.952535944,-151.25249877892486,-4617.7202443219185,6454.474164014353,0.9950434924808452,-4.690164087256074e-05,0.0004474847184366303,0.09943965823143698
1.435,-9.102132076954388e-06,0.0005905179711938643,-0.006847563638928484,-40.399825891172824,43.95014679628122,4.682131086543445,-1656472.3030296864,5090638.614312966,3600410.2253035884,-150.99845274444112,-4617.720331499779,6454.632893780015,0.9950451919273933,-4.709336655018061e-05,0.0004489595559134831,0.09942264450168817
1.44,-9.255783357404108e-06,0.0006034726659906004,-0.006824129442693119,-40.4006769334771,43.93158864153493,4.676708615381501,-1656473.057387152,5090615.525711092,3600442.498864661,-150.74453347598526,-4617.720418198089,6454.791535167316,0.9950468931238512,-4.7270471968740985e-05,0.00045042546743493035,0.09940561033951657
1.445,1.6428496055517212e-05,0.0005862257583208073,-0.006825898034636483,-40.372683066585616,43.8879201836152,4.675990590746402,-1656473.8104750884,5090592.437108828,3600474.77321873,-150.4906410894464,-4617.720487647946,6454.95009247794,0.9950485881891502,-4.745115263392472e-05,0.0004519235697307104,0.09938863444204393
1.45,1.0907529806931149e-07,0.0005921360406456608,-0.006832821163194198,-40.36798743412261,43.869161886341075,4.666947630138672,-1656474.562294081,5090569.348506303,3600507.048365212,-150.23695599188633,-4617.720522461303,6455.108500398087,0.9950502834245359,-4.7563657151947115e-05,0.00045338514971994564,0.09937165408885672
1.455,1.089208759103986e-05,0.0006033962370546207,-0.006825052298870064,-40.350110910012575,43.83424242120782,4.664093574825101,-1656475.312844767,5090546.259903584,3600539.324303508,-149.98331836221018,-4617.720565120749,6455.266817817687,0.9950519800789709,-4.7718234400068385e-05,0.00045485737710347526,0.09935465650212891
1.46,-8.504872227014883e-06,0.0006270608866418519,-0.006821990829685506,-40.334889374090736,43.817024618155585,4.661355322306982,-1656476.0621276232,5090523.171300719,3600571.60103307,-149.72982420669328,-4617.720581005079,6455.425007145916,0.9950536744999601,-4.7848775537882266e-05,0.0004563602948382455,0.09933767819867521
1.465,1.4849307566395527e-05,0.0005760040617509607,-0.006825080445433207,-40.32115500260361,43.783326537289724,4.655972537282331,-1656476.8101432591,5090500.082697754,3600603.8785534343,-149.47643011545279,-4617.720604933941,6455.583138463082,0.995055367839413,-4.803344268754608e-05,0.00045791726467428657,0.09932070750119343
1.47,1.0100082637215342e-05,0.0005825849815432943,-0.006812480770159875,-40.31575950083771,43.75779933904014,4.665104542655655,-1656477.5568922232,5090476.994094725,3600636.1568641206,-149.2231554589678,-4617.720606355575,6455.741136187661,0.9950570617154566,-4.814733910526144e-05,0.0004593530219699963,0.09930372906813235
1.475,-6.421637801050927e-07,0.0005787812993773284,-0.0068152866788737596,-40.29240545915445,43.726923368413026,4.6548735873955085,-1656478.3023750288,5090453.905491885,3600668.4359646295,-148.96996683503903,-4617.720529850036,6455.899067285131,0.9950587521641338,-4.827466918882551e-05,0.00046080397258527433,0.09928678195415681
1.48,-5.139250010835126e-07,0.0006069742505886745,-0.006812667424992701,-40.282413800518825,43.706795181691156,4.649714965407452,-1656479.0465922698,5090430.81688937,3600700.715854474,-148.7169295299783,-4617.72047609109,6456.056870516037,0.9950604430215256,-4.842778126809751e-05,0.00046224279410146045,0.099269827843885
1.485,-4.419038986111677e-06,0.0005812968478804808,-0.0067897865275268745,-40.25334581868961,43.68202618363391,4.643774427479989,-1656479.7895445207,5090407.728287123,3600732.996533132,-148.46397085947225,-4617.720422527491,6456.214592818025,0.9950621329053777,-4.858756806660871e-05,0.00046375178185151526,0.09925288021681622
1.49,-1.0268820916559247e-05,0.0005782185049471784,-0.006816126935592019,-40.2430695648589,43.65031533627759,4.648120684826513,-1656480.5312324073,5090384.6396850655,3600765.278000186,-148.2111837598434,-4617.720400515148,6456.372228725508,0.9950638168511637,-4.875067151056807e-05,0.00046519592673347745,0.09923598948826697
1.495,1.401770046489478e-07,0.0005807420292299433,-0.0068008950449094914,-40.23137318464004,43.62361179376489,4.643579172399699,-1656481.2716566403,5090361.551083277,3600797.5602551666,-147.95850945007138,-4617.720315136264,6456.529763415221,0.9950655070446928,-4.892759413369241e-05,0.00046663095912822297,0.09921903321201585
1.5,-4.341249315636229e-08,0.0005721589357276104,-0.006796150920596385,-40.21402496880334,43.594752565626806,4.643848202532491,-1656482.0108177487,5090338.4624819495,3600829.843297559,-147.7059339466447,-4617.720215865088,6456.687193552929,0.995067193167934,-4.9079230840469904e-05,0.0004680748528566452,0.09920211478618132
1.5050000000000001,-4.76259777680882e-06,0.0005738258193691645,-0.006782799632911912,-40.21176926001136,43.556919481744835,4.633303330868538,-1656482.7487163153,5090315.373881184,3600862.1271268637,-147.45349264587497,-4617.720090302581,6456.84452842967,0.9950688778351124,-4.922919003859737e-05,0.0004694973496129109,0.09918520813455793
1.51,-1.9224659940209902e-05,0.0006001478153032408,-0.006783057913659109,-40.19216734562445,43.53961840264411,4.635777481132237,-1656483.4853528466,5090292.285281134,3600894.4117424074,-147.20111989697955,-4617.719929560667,6457.001689009381,0.9950705589004004,-4.939128666297158e-05,0.0004709228243527807,0.09916833467311616
1.5150000000000001,1.322834668803941e-05,0.0005758363007169843,-0.006792363634949083,-40.17675813633378,43.50483944737318,4.632914513584721,-1656484.2207278304,5090269.196681897,3600926.697143653,-146.94887363595623,-4617.7197650298485,6457.158809264967,0.9950722397086682,-4.9595886279057734e-05,0.0004724101940857889,0.09915146055420188
1.52,-1.1685350980991275e-05,0.0005933777373574275,-0.006770801973224035,-40.16870008111976,43.47980206145201,4.62650865405607,-1656484.954841913,5090246.108083563,3600958.9833301757,-146.6967593846791,-4617.7195689291575,6457.315799828415,0.9950739225676717,-4.971373785058308e-05,0.0004738451276522743,0.09913456322154604
1.5250000000000001,1.4777897198133676e-05,0.00056331811512975,-0.006779334122400016,-40.14890555075721,43.457724873397986,4.6197043882598265,-1656485.6876956169,5090223.019486234,3600991.2703013862,-146.44472219017558,-4617.719362615274,6457.472684390809,0.9950755997708858,-4.989788869934638e-05,0.00047531752680539163,0.09911771952613453
1.53,1.4329099203950936e-05,0.000579961731596652,-0.006773085957089361,-40.13406881133757,43.42247570438843,4.622323864541159,-1656486.4192894448,5090199.930889881,3601023.5580568057,-146.19280893374633,-4617.719178436174,6457.629483404618,0.9950772788397838,-5.0008768738005225e-05,0.0004767217032072965,0.09910085454905018
1.5350000000000001,-1.6177586260507034e-05,0.0005951090495700524,-0.006768298892984662,-40.12339985233462,43.39397469980645,4.615358876477826,-1656487.1496240494,5090176.842294588,3601055.8465959285,-145.94103297458034,-4617.718938806525,6457.786165655696,0.9950789560531907,-5.012488127886966e-05,0.0004781671732733713,0.09908400508529557
1.54,-2.034866584523862e-05,0.0005784651122270791,-0.006758698723085707,-40.099593681789116,43.36810296345453,4.614906875252339,-1656487.87870001,5090153.75370052,3601088.1359181637,-145.6893512292685,-4617.718688489481,6457.942728362801,0.9950806317716108,-5.03206316268589e-05,0.0004796427689332334,0.09906716753627501
1.545,-4.164764522356836e-06,0.0005622849283471159,-0.006760900303925899,-40.077410858458116,43.34360052254471,4.6063558457427405,-1656488.606517954,5090130.665107712,3601120.4260230125,-145.4378263526947,-4617.7184347188995,6458.099211110745,0.9950823048451665,-5.052262468066612e-05,0.00048107592747083264,0.09905035384817033
1.55,-1.0804550708709524e-05,0.00059603945084874,-0.006763290127292277,-40.07228707403016,43.317279742030394,4.609415780526757,-1656489.3330786154,5090107.576516102,3601152.716910029,-145.1864381843532,-4617.718209244797,6458.2555954610425,0.9950839781991807,-5.0680352950843915e-05,0.00048247284160819986,0.0990335346372701
1.555,-2.000416187090902e-06,0.0005893944395819863,-0.0067639111073729665,-40.05714855346496,43.28435199235224,4.604037277143264,-1656490.0583825314,5090084.48792576,3601185.008578749,-144.93512828474826,-4617.71792727609,6458.41189259982,0.9950856518168509,-5.086295902530599e-05,0.00048395208286146823,0.09901670945640427
1.56,-8.476182698517605e-06,0.000565122701946355,-0.006763729805309604,-40.03645655205321,43.261188226464235,4.593197728629339,-1656490.7824302085,5090061.3993368745,3601217.301028631,-144.6839425717352,-4617.717627285359,6458.568060245335,0.9950873253107041,-5.102201874870385e-05,0.00048541697239899874,0.09899988269238277
1.565,-5.945464734095567e-06,0.000589737358984178,-0.006734217637649238,-40.01930700412391,43.22559699720127,4.597149394580769,-1656491.5052222689,5090038.310749395,3601249.5942591,-144.4328815383678,-4617.717364607502,6458.724127319568,0.9950889985017121,-5.1191180872386206e-05,0.0004868198778233262,0.09898305636183072
1.57,-2.4330502066988365e-05,0.0005878417815464356,-0.006764268359547156,-40.00918653671352,43.20137703545963,4.593588823320105,-1656492.2267593988,5090015.22216337,3601281.888269623,-144.18197044119708,-4617.717045126627,6458.880081777773,0.9950906640747179,-5.136010242456634e-05,0.0004882846475665024,0.09896630341474691
1.575,1.40617020306985e-05,0.0005713861943697452,-0.006749640379007703,-39.99369958680973,43.169626797135116,4.5891170908914365,-1656492.9470421944,5089992.133578981,3601314.183059685,-143.9311477593299,-4617.716710217393,6459.035943082081,0.9950923367972357,-5.15743285971218e-05,0.0004897401488845921,0.09894947570397675
1.58,-1.646019609156136e-05,0.000572641749082289,-0.006755888009338308,-39.97292337660805,43.14371841942965,4.586970053124068,-1656493.6660711884,5089969.044996314,3601346.4786287486,-143.68044985757646,-4617.716357130006,6459.191682461779,0.9950940056402288,-5.168895669549105e-05,0.0004911642120974055,0.09893268431035751
1.585,-1.0475014356685065e-05,0.0005817157397529252,-0.0067384971898554035,-39.95605537632721,43.11927294028736,4.586879543805475,-1656494.3838470457,5089945.956415419,3601378.7749762908,-143.42989304842115,-4617.716000917647,6459.3473344515305,0.9950956757373358,-5.187983338370402e-05,0.0004925838488160401,0.09891587738320728
1.59,1.3441186594446095e-05,0.0005707288134745853,-0.0067278084876061985,-39.937671514662924,43.08502989165278,4.579988005822347,-1656495.1003704278,5089922.867836344,3601411.072101896,-143.1794598046172,-4617.7156288904125,6459.502907553626,0.9950973412382675,-5.2058042974171587e-05,0.0004940275414450267,0.09889911368298228
1.595,7.907601839687523e-06,0.0005848395561720869,-0.006724847149343393,-39.92331305826269,43.0527828548181,4.579912739820517,-1656495.8156419913,5089899.779259151,3601443.370005025,-142.9291656510218,-4617.715248344527,6459.658344146112,0.9950990038291003,-5.217402548537642e-05,0.0004954498158989621,0.09888237651716895
1.6,1.5324133576530677e-05,0.0005839316103014847,-0.006738362525670422,-39.91399540152437,43.0232732089265,4.580914706381741,-1656496.5296623998,5089876.690683958,3601475.668685056,-142.67899770142898,-4617.7148287685095,6459.813668120107,0.9951006653862098,-5.230725873484848e-05,0.0004969058266280011,0.09886564669526343
1.605,1.447258079707366e-05,0.0005843111244093794,-0.006722958337703508,-39.89233434720441,43.00024966625494,4.57600635714809,-1656497.2424322185,5089853.602110981,3601507.96814145,-142.42892981560382,-4617.714361914478,6459.968889512568,0.9951023300019799,-5.242183385826724e-05,0.000498361409804533,0.09884888321315204
1.61,-5.128945466300972e-06,0.0005879344599278639,-0.006722583406522215,-39.874320879143475,42.97697757675325,4.562874303497091,-1656497.953952039,5089830.513540299,3601540.268373744,-142.1789982720326,-4617.713911215143,6460.12402819739,0.9951039905265753,-5.253860201635252e-05,0.0004998177285585154,0.09883215802571146
1.615,4.024890596718745e-06,0.0005980994718904042,-0.006726881091093379,-39.86022935110512,42.942385926631154,4.571057382009059,-1656498.6642224758,5089807.424971768,3601572.5693814578,-141.92917654692428,-4617.713501033995,6460.279057177401,0.9951056506682032,-5.270502883866709e-05,0.0005012782180557167,0.09881543376689708
1.62,3.5869169505046374e-06,0.0005577702370141564,-0.00670925909618661,-39.845397622771806,42.910562637287704,4.571109799139614,-1656499.3732441538,5089784.336405482,3601604.8711640676,-141.67949459054495,-4617.713013312342,6460.433986860648,0.9951073115765506,-5.2851199596993595e-05,0.0005027662563466704,0.0987986987755001
1.625,-7.795728452095037e-06,0.0005549716073541604,-0.006693468767917527,-39.82923842188053,42.88037949364779,4.558474071085592,-1656500.081017741,5089761.247841729,3601637.173721051,-141.42994034274878,-4617.712487956508,6460.588806368357,0.995108967900177,-5.2988476578073976e-05,0.0005041538588538133,0.09878200760134669
1.6300000000000001,3.2724932190176484e-06,0.000577817791674335,-0.006717033153493852,-39.811800240875144,42.85332016415011,4.548900873357862,-1656500.7875438433,5089738.159280555,3601669.4770517866,-141.18050049955383,-4617.711981457064,6460.743487911216,0.9951106200450922,-5.315335993794487e-05,0.0005055316899551471,0.09876535569673668
1.635,-2.3032532845924277e-05,0.0005789443022288908,-0.006699427178059199,-39.791744143792386,42.82184710088035,4.551433645451672,-1656501.4928230422,5089715.070721872,3601701.7811556407,-140.93117915444046,-4617.711491545767,6460.898053759723,0.9951122776993413,-5.329637883060777e-05,0.0005069690868758291,0.09874864512422511
1.6400000000000001,4.1420683496568856e-07,0.0005636292003358939,-0.006711266591289865,-39.7744772323678,42.793224581889696,4.550355016618761,-1656502.1968560189,5089691.98216573,3601734.08603208,-140.6820115117489,-4617.7109656877765,6461.052521993652,0.9951139307202819,-5.3505094633441684e-05,0.0005084027945457001,0.09873197835672887
1.645,-2.0838599482351878e-05,0.0005661506121615366,-0.006681259512704478,-39.759026568634354,42.768833692088336,4.5435844100026355,-1656502.899643486,5089668.893612267,3601766.3916806146,-140.43297529745155,-4617.710418985442,6461.2068917966735,0.9951155864044765,-5.3651714800111664e-05,0.0005098041871673738,0.09871528207962128
1.6500000000000001,-9.942731000210629e-06,0.000552769019152159,-0.006673734520888775,-39.74415066569142,42.72480025759368,4.536182517884573,-1656503.601186043,5089645.805061521,3601798.6981007517,-140.18404750095695,-4617.709879901883,6461.361162982351,0.9951172343963457,-5.385179145906323e-05,0.0005112066114685757,0.09869866045267939
1.655,-6.63138265614396e-06,0.0005934459401638241,-0.006678899025068953,-39.724468358255834,42.70482248531888,4.544254591783548,-1656504.301484311,5089622.716513559,3601831.0052917926,-139.93525968836371,-4617.7093044829335,6461.5152534386525,0.9951188802707482,-5.4021449956297045e-05,0.0005125784345238924,0.0986820575065378
1.6600000000000001,-6.423668131510611e-06,0.0005737586292127501,-0.006696157121891215,-39.708351716849414,42.661006478282246,4.538898366080937,-1656505.0005389864,5089599.627968556,3601863.3132531964,-139.6866104775534,-4617.708696976702,6461.669308099053,0.9951205270883139,-5.419291229890993e-05,0.0005140522695947636,0.09866544167472636
1.665,2.1339958698322718e-05,0.0005712973338213808,-0.0066770918333465615,-39.69277234044334,42.639888836576894,4.531686123997913,-1656505.6983507853,5089576.539426694,3601895.621984441,-139.43810906026403,-4617.7080480587465,6461.823189648353,0.995122177907878,-5.4359023909627315e-05,0.0005154771753001747,0.09864878288281019
1.67,1.4403448188410963e-05,0.0005687299834585432,-0.006687182301869588,-39.679303755093024,42.604740537473845,4.5167168401864295,-1656506.3949203333,5089553.450888033,3601927.9314848767,-139.18971020766637,-4617.707416264844,6461.976984715714,0.9951238237523472,-5.4455433424258147e-05,0.0005169028073473216,0.09863217145840934
1.675,1.2475513608457188e-05,0.0005904712246899075,-0.006671443123256789,-39.659382522488755,42.58463399210187,4.519858971227537,-1656507.0902481575,5089530.362352503,3601960.2417538706,-138.94141944189568,-4617.706795477648,6462.13061285474,0.9951254718075709,-5.4568479621862066e-05,0.0005183203403889543,0.09861553491243204
1.68,-1.2584403693820573e-05,0.0005697701025366935,-0.006663845272526793,-39.646782865007516,42.55933729252795,4.518531114897371,-1656507.7843348617,5089507.273820109,3601992.5527908807,-138.69326224324087,-4617.706162174436,6462.284191087795,0.9951271156744756,-5.4691661811637734e-05,0.0005197914882787254,0.09859893749442634
1.685,2.07739017077462e-06,0.0005710463328918984,-0.006653622902743481,-39.625625107554995,42.519034030999634,4.519138293660012,-1656508.4771810404,5089484.185290936,3602024.864595558,-138.44520921158042,-4617.705507031524,6462.437679872128,0.9951287574134042,-5.487207584928279e-05,0.0005212049592388255,0.0985823589862799
1.69,-6.5883953603680456e-06,0.0005786548538164441,-0.006659117302685757,-39.610434530741806,42.4876612715707,4.520793340090422,-1656509.1687873832,5089461.096765155,3602057.1771673337,-138.1973279668073,-4617.704805336836,6462.591030522239,0.9951303963555265,-5.501631515447239e-05,0.0005226252199751197,0.0985658058627699
1.695,2.338456840430887e-06,0.0005542403988393488,-0.006655139246095232,-39.583553440332864,42.4568416459018,4.507481922180814,-1656509.859154646,5089438.008242989,3602089.4905056036,-137.94957714381246,-4617.704061331395,6462.744277422936,0.9951320363627884,-5.518399543955911e-05,0.0005240622731106771,0.09854923905292631
1.7,5.3380800224847116e-06,0.0005732739942800034,-0.006662486508587846,-39.57253111554264,42.434168117402415,4.503682523401116,-1656510.5482835616,5089414.919724437,3602121.804609773,-137.7019890272049,-4617.703359118487,6462.8973904331,0.9951336751455504,-5.532344694100547e-05,0.0005254407869693228,0.09853268210399001
1.705,9.221813114730927e-06,0.0005650211980572481,-0.0066304335882643815,-39.55456375469402,42.39611879703606,4.5022005745829485,-1656511.2361747592,5089391.83120942,3602154.1194792907,-137.45449009347752,-4617.702647627513,6463.050416400042,0.9951353154358358,-5.5460134091287106e-05,0.0005268673909968678,0.09851610684220853
1.71,1.1256121063229535e-05,0.0005799003275282462,-0.006657968699476435,-39.53206894069544,42.36964402087812,4.495553890902758,-1656511.9228288392,5089368.74269806,3602186.435113594,-137.20714189057753,-4617.701896450419,6463.203304946302,0.9951369475664377,-5.55850843237483e-05,0.0005282744242252626,0.09849961129153864
1.715,1.1295353892193752e-05,0.00053237631821186,-0.0066509056866938185,-39.524474941237024,42.32867120609012,4.496044392440549,-1656512.6082465376,5089345.654190415,3602218.751512087,-136.9599374900506,-4617.701161817434,6463.356092298605,0.9951385861815586,-5.570867383966887e-05,0.0005297189713555278,0.09848304720571922
1.72,8.175823330306144e-06,0.0005587321184652567,-0.006636952488959101,-39.503940268857384,42.300951385771775,4.497309575623691,-1656513.2924284937,5089322.565686631,3602251.0686741364,-136.71284494284117,-4617.700351793031,6463.508727453434,0.995140222843311,-5.582045560814898e-05,0.000531045296542664,0.09846650067071103
1.725,-3.3901788865243918e-06,0.0005860034749402295,-0.0066477719410189574,-39.488698431195594,42.26813546974415,4.48407219875042,-1656513.9753753557,5089299.477186951,3602283.386599147,-136.46589976773657,-4617.699520297005,6463.661276883342,0.995141855758433,-5.594646767107768e-05,0.0005324364248986835,0.09844998882228827
1.73,3.3675243888701446e-06,0.0005690089201598105,-0.006638014456587419,-39.46618980500392,42.24582562882716,4.4875603590643625,-1656514.6570877766,5089276.388691395,3602315.705286527,-136.21906860104838,-4617.698701890501,6463.813675021279,0.9951434910221181,-5.610798081426468e-05,0.0005338925520822672,0.0984334500408726
1.735,-1.1764796813400593e-05,0.0005646514916365341,-0.006614645629504496,-39.45241496445899,42.214553718850794,4.481396507508214,-1656515.3375664153,5089253.300199966,3602348.0247357576,-135.97238690887636,-4617.697869708672,6463.9660172452,0.9951451236317415,-5.624848662552719e-05,0.0005353080633948613,0.09841693550071066
1.74,-8.314973674036936e-06,0.0005799048413945136,-0.0066332723022115465,-39.42223970030221,42.17886361676891,4.483292902820847,-1656516.0168119299,5089230.211712734,3602380.3449463835,-135.725818971682,-4617.697023296657,6464.1182330413785,0.9951467502202536,-5.6425536174653995e-05,0.0005367090139695666,0.09840047909264239
1.745,4.745996660771119e-06,0.0005647911602182728,-0.006627041339241673,-39.41979305991341,42.1533114261093,4.470980468046793,-1656516.694825119,5089207.12322979,3602412.6659178166,-135.4794566638532,-4617.696154161998,6464.270340219849,0.9951483810960318,-5.6597780342547355e-05,0.0005381487587326663,0.09838397630992557
1.75,-1.905888278042554e-05,0.0005699664284079512,-0.006621548602582045,-39.396530237756664,42.11633458010162,4.473937577320568,-1656517.3716066086,5089184.034751192,3602444.9876494617,-135.23313912183684,-4617.695285081363,6464.4223178451075,0.9951500101859754,-5.673380474297617e-05,0.0005395541158155619,0.09836748898637526
1.7550000000000001,4.651055536409622e-05,0.0005623709996572839,-0.006605823100398989,-39.39127204963419,42.09283588961393,4.46901776830899,-1656518.0471569558,5089160.946277049,3602477.310140704,-134.986999804097,-4617.694372011986,6464.574179003189,0.9951516376398637,-5.693031797904521e-05,0.0005409664948833919,0.09835101533226727
1.76,1.1235522688575048e-05,0.0005868779081646784,-0.006626943246207419,-39.36038793697491,42.05337988145498,4.463495843103494,-1656518.7214767647,5089137.857807518,3602509.633391006,-134.74092370895494,-4617.693440335006,6464.725941874294,0.9951532609727518,-5.696181355232213e-05,0.0005423761015840309,0.0983345806866262
1.7650000000000001,-2.4134959850904104e-05,0.0005652384044685273,-0.006579587081572654,-39.33887885343646,42.02580334906079,4.456993914471465,-1656519.3945667078,5089114.769342648,3602541.9573997622,-134.49505356876838,-4617.692507841253,6464.877560629561,0.9951548891851486,-5.708712259847687e-05,0.0005438380035634686,0.09831809351376262
1.77,-3.2594560597004393e-06,0.0005954798120724902,-0.006596773869293424,-39.32384476733328,42.00175926190281,4.456424418884153,-1656520.066427654,5089091.680882411,3602574.282166347,-134.24932488489395,-4617.691586677432,6465.029073248381,0.9951565055087295,-5.7295046128458e-05,0.0005452373816113581,0.09830172418187573
1.7750000000000001,-1.1633494374659947e-05,0.0005689547108275641,-0.006592713509841206,-39.30248386215383,41.96288809908963,4.456431329590447,-1656520.737060241,5089068.592426823,3602606.6076902933,-134.0037098617895,-4617.690648404105,6465.18050536764,0.9951581257457452,-5.745848904273549e-05,0.0005467171246272119,0.0982853120314686
1.78,-1.4023421777673318e-05,0.0005533870777603588,-0.00660602749750803,-39.28458358002213,41.92492555730742,4.437021194101889,-1656521.4064651756,5089045.503976029,3602638.9339710656,-133.75826404479443,-4617.68966944064,6465.331803475488,0.995159744747518,-5.7636242552676506e-05,0.0005481288187890377,0.09826890997114267
1.7850000000000001,1.6296116690243742e-05,0.000571823457470317,-0.006576224172017113,-39.263448501193686,41.891431413164646,4.440810112375926,-1656522.0746431989,5089022.415530052,3602671.2610078594,-133.51294527907496,-4617.688721342555,6465.482914131876,0.9951613667683156,-5.781613565428614e-05,0.0005495011930388836,0.09825247476553114
1.79,3.4113388552173113e-06,0.0005654893814104206,-0.006563066437955965,-39.244352524496826,41.85933745647351,4.439434933369799,-1656522.741595037,5088999.327088925,3602703.5887999525,-133.2677899809781,-4617.68772962246,6465.633922994261,0.9951629811753658,-5.792508426414191e-05,0.0005509268868025228,0.09823611363652658
1.795,5.708306932206112e-06,0.0005579270493494625,-0.006586628886827034,-39.231301329600306,41.83328640064672,4.436250752124616,-1656523.4073214617,5088976.238652817,3602735.917346809,-133.0227798507093,-4617.686713623255,6465.78481965363,0.9951645920874033,-5.806451528315491e-05,0.0005523336593505557,0.0982197852347123
1.8,3.6329220655288584e-06,0.0005601039270967281,-0.006570680572525604,-39.21022174050317,41.80037626782888,4.422852239868046,-1656524.0718230978,5088953.150221827,3602768.246647905,-132.77787464254163,-4617.685682075476,6465.935618706402,0.9951662085251273,-5.819640724237952e-05,0.0005537221779344432,0.09820339818280638
1.805,2.726654488323617e-06,0.0005587754819230593,-0.006550949884405231,-39.19894245078006,41.77952867812369,4.425210144045418,-1656524.7351005583,5088930.061795932,3602800.5767026274,-132.53310948837594,-4617.684675799972,6466.0862701945825,0.9951678207729606,-5.833397493258944e-05,0.000555115605051127,0.09818705078476025
1.81,9.565011866108679e-06,0.0005616013858318451,-0.006570844163492213,-39.175734828186584,41.742842333261144,4.427837082452191,-1656525.39715443,5088906.973375142,3602832.907510451,-132.28843916642677,-4617.683640524207,6466.236859292885,0.995169427909586,-5.847344385551571e-05,0.0005565055073707336,0.09817075244992321
1.815,1.605978474870501e-05,0.0005497516565188834,-0.006565859351461552,-39.15835443267461,41.70685579099702,4.415854800132816,-1656526.0579853922,5088883.884959633,3602865.239070929,-132.04394574170814,-4617.682562969616,6466.387331964193,0.9951710396561836,-5.859662068306708e-05,0.0005579041155809761,0.09815440458310946
1.82,5.692922323987555e-07,0.0005367661277742188,-0.006550809898200096,-39.13461100830393,41.67435692698935,4.416621866373268,-1656526.717594214,5088860.7965495,3602897.571383373,-131.79958300689046,-4617.681490428945,6466.537645507747,0.9951726499267918,-5.8700724259574274e-05,0.0005592748368277515,0.09813806908416792
