t_s,gyro_x_radps,gyro_y_radps,gyro_z_radps,accel_x_mps2,accel_y_mps2,accel_z_mps2,ins_pos_ecef_x_m,ins_pos_ecef_y_m,ins_pos_ecef_z_m,ins_vel_ecef_x_mps,ins_vel_ecef_y_mps,ins_vel_ecef_z_mps,ins_quat_w,ins_quat_x,ins_quat_y,ins_quat_z
0.0,8.139407860459039e-06,0.0005621880169499869,-0.007483966200861425,-48.932628185016426,55.54592973999188,5.140888579146812,-1658763.5840503734,5105149.374697655,3596773.925093057,-258.4057955714953,-5260.056020287632,7298.290012616031,0.9945218953682734,0.0,0.0,0.10452846326765353
0.005,-2.145400764477495e-05,0.000574444518613505,-0.0074618344752543225,-48.9254612898534,55.546429440160885,5.142405968349313,-1658764.8752941298,5105123.074404156,3596810.4170366675,-258.09170702209275,-5260.061379398937,7298.487431439195,0.9945238509119344,-1.2667457535794194e-07,1.3998977298329756e-06,0.10450985582862828
0.01,-3.809830951001403e-06,0.0005578637977726353,-0.007455557225425175,-48.95495171749468,55.53740376273437,5.142457333093024,-1658766.1649675418,5105096.774083816,3596846.9099674267,-257.77765773013437,-5260.066756403731,7298.684872324443,0.9945258003239592,-3.301297801416215e-07,2.8225369152953988e-06,0.10449130337933725
0.015,-1.30153079341495e-05,0.0005739973099122052,-0.0074730337479921765,-48.94346722858795,55.55184122596008,5.143353537561861,-1658767.4530704345,5105070.473736776,3596883.4038852598,-257.46349933299757,-5260.072059699316,7298.882260928748,0.9945277477485288,-4.853846153191033e-07,4.208560375842895e-06,0.10447276650061142
0.02,5.980951006820226e-06,0.0005724858976173428,-0.007484916159639792,-48.94401888219896,55.5383314603172,5.146255247576247,-1658768.7396026156,5105044.173363067,3596919.898790237,-257.1493731234382,-5260.07742401237,7299.0797300452,0.9945296993891591,-6.677411715430367e-07,5.632292573317235e-06,0.10445418613315714
0.025,-2.705855526547165e-06,0.0005806039922862594,-0.007477282096350176,-48.95590753324659,55.53772730822578,5.134426073181207,-1658770.0245642462,5105017.872962625,3596956.3946824665,-256.83527909972304,-5260.082752889675,7299.277161620824,0.9945316537830364,-8.02472352267293e-07,7.057227484853993e-06,0.10443557618517854
0.03,-1.5217701097942046e-05,0.0005664077119879118,-0.007467173472755632,-48.96241404543433,55.52516532406126,5.138779591081933,-1658771.307955254,5104991.572535466,3596992.891561763,-256.52112404877874,-5260.088110424778,7299.474557061464,0.9945336058336371,-9.609212029229578e-07,8.500078635399766e-06,0.10441698518138308
0.035,1.5711314833279756e-05,0.0005730254993680913,-0.007465571718973002,-48.97197549579642,55.52495310336611,5.1395506734580545,-1658772.5897755008,5104965.272081649,3597029.38942795,-256.20697467896167,-5260.093416657267,7299.671917754278,0.9945355548966276,-1.1467726336841272e-06,9.904366989678103e-06,0.10439841927464977
0.04,-1.1247250097404394e-05,0.0005676232984331454,-0.007457981918756968,-48.9731258136351,55.52267325933941,5.141036545720273,-1658773.8700249128,5104938.971601338,3597065.888280947,-255.89279008267334,-5260.098707581992,7299.869281099725,0.9945375031929593,-1.2574512256882213e-06,1.1333181758119277e-05,0.10437985731304825
0.045,3.1827002161676934e-06,0.0005759545428618391,-0.007479421392620693,-48.97619795586019,55.51784828492712,5.144508194649678,-1658775.1487034194,5104912.671094587,3597102.38812077,-255.5786125942988,-5260.10399298109,7300.066647976936,0.9945394491606933,-1.4337481594397565e-06,1.2741529989978315e-05,0.10436131418654462
0.05,1.2880383483282759e-05,0.0005730445436855988,-0.007470833399191212,-48.9781485200678,55.512044787102816,5.145072271294195,-1658776.425811053,5104886.370561467,3597138.88894742,-255.26444080651893,-5260.109255283577,7300.264011933015,0.9945414003730786,-1.576341537574011e-06,1.41743573400781e-05,0.10434271771694781
0.055,1.1829210708912194e-06,0.0005813175047044693,-0.007483317929883652,-48.98427984257908,55.50738228993727,5.139316972346623,-1658777.7013478496,5104860.070002063,3597175.3907608544,-254.95027782836328,-5260.114506034325,7300.461361877815,0.9945433489959883,-1.694063649030907e-06,1.5602479138973357e-05,0.104324142563151
0.06,-7.51113394195692e-06,0.0005864314488523104,-0.007463173508723621,-48.986102682288,55.50118568389287,5.1364823763156755,-1658778.975313781,5104833.769416387,3597211.893560962,-254.63609476987833,-5260.119764102734,7300.658681167193,0.9945453005250392,-1.8430280043799082e-06,1.7048119606062718e-05,0.1043055363320881
0.065,-5.043516235938003e-06,0.0005799432350381769,-0.007483624928872549,-48.9943911962247,55.49675359902146,5.135009781073368,-1658780.2477088117,5104807.468804419,3597248.3973476035,-254.321917459314,-5260.125023385706,7300.855975466293,0.9945472464516206,-2.014941611131775e-06,1.8504208187601924e-05,0.10428698015108956
0.07,4.827447164091799e-06,0.0005722157326327508,-0.007466656449417243,-48.9857768614827,55.489342893394145,5.135655853221547,-1658781.5185328939,5104781.168166188,3597284.9021206675,-254.00771547216345,-5260.1302691801,7301.0532501523685,0.9945491973612721,-2.1790291667170544e-06,1.9944807922661024e-05,0.10426837308362506
0.075,-8.212461491487716e-06,0.0005617053196601239,-0.007454299799465885,-48.9959627047399,55.49258006170336,5.138880726673223,-1658782.787786114,5104754.8675017115,3597321.407880077,-253.69357259052077,-5260.1355212396775,7301.2505136247755,0.9945511434987775,-2.3165586433798002e-06,2.1368767363100416e-05,0.1042498081690489
0.08,-8.978664593730364e-06,0.0005573979604039437,-0.007468452263786223,-49.003332878202706,55.48126001182634,5.13466257061609,-1658784.055468517,5104728.566811021,3597357.914625861,-253.37938851745386,-5260.140754873159,7301.44780009104,0.9945530860683526,-2.4837703279369106e-06,2.2763195489586387e-05,0.10423127394205645
0.085,8.382635148959128e-06,0.0005651518173227265,-0.007467334733935409,-49.01385157681442,55.48077992223838,5.134334636865032,-1658785.3215799704,5104702.266094204,3597394.4223579415,-253.0651929481005,-5260.145972038868,7301.645032100398,0.9945550319779888,-2.6517654873066255e-06,2.4146714120812667e-05,0.1042127044902203
0.09,-2.3372418518835062e-05,0.0005778314841288061,-0.007466431841649275,-49.00850352655983,55.4845320043636,5.134393544506682,-1658786.5861203452,5104675.965351335,3597430.9310761765,-252.7509569407251,-5260.151175652512,7301.842261797851,0.9945569772475003,-2.778613784232173e-06,2.5554035014521033e-05,0.1041941377793675
0.095,-1.4133675368925635e-05,0.0005760732794125537,-0.007455331601378006,-49.007627202908026,55.47334869136825,5.124497877854271,-1658787.849089598,5104649.664582379,3597467.4407806336,-252.43674422140106,-5260.156406547232,7302.039521075007,0.9945589219321906,-2.9877204153420546e-06,2.698461080717879e-05,0.10417557327887898
0.1,-1.4336753696192054e-05,0.0005742695758595598,-0.007453825190226955,-49.01626008966898,55.46198984953403,5.138809435647565,-1658789.110487832,5104623.3637872115,3597503.9514712305,-252.12254937014652,-5260.161660694315,7302.236717676963,0.9945608633780505,-3.1733972055351337e-06,2.8413221206245836e-05,0.10415703634092767
0.105,6.184339573261806e-06,0.0005731777278994427,-0.0074739803664923095,-49.02626608091893,55.464089686233784,5.136596667924952,-1658790.3703151084,5104597.062966003,3597540.463147801,-251.80836117806047,-5260.166822625587,7302.433910400614,0.9945628040842929,-3.359109150967951e-06,2.9837293994838032e-05,0.10413850311215801
0.11,-1.0569806488802371e-05,0.0005460789398502713,-0.007473833866064726,-49.027408453329805,55.4614923089559,5.131559206619612,-1658791.6285713306,5104570.762118983,3597576.975810343,-251.49412769267616,-5260.171985355118,7302.631106442117,0.9945647496897728,-3.493514549978245e-06,3.1263994415136256e-05,0.10411991973142122
0.115,3.158068363184068e-06,0.0005483591278981708,-0.007459706971803882,-49.03097492408259,55.45677013575887,5.1420351267895175,-1658792.8852563838,5104544.4612461,3597613.489458825,-251.17989356334252,-5260.177167585458,7302.828286503654,0.9945666949099191,-3.662523834930362e-06,3.261895497650151e-05,0.10410133667993665
0.12,-8.610682227356597e-06,0.0005757664225508648,-0.007489635083727381,-49.03731966055373,55.44784791036662,5.134931632424567,-1658794.140370297,5104518.160347436,3597650.0040932493,-250.86567169179324,-5260.1822983563,7303.02548323324,0.9945686361050109,-3.7979921753497242e-06,3.398315787882072e-05,0.10408278871618865
0.125,4.248252921276955e-06,0.00057004246334926,-0.007487501486729654,-49.038005921228255,55.439056053077955,5.141066235337913,-1658795.3939130632,5104491.85942311,3597686.5197135275,-250.55143480581967,-5260.187431621791,7303.22262805586,0.9945705847359039,-3.969856701766712e-06,3.541244426323693e-05,0.10406416630272591
0.13,7.699207933664363e-06,0.0005813554470319968,-0.007481026562714061,-49.04414190710602,55.42757453411005,5.138408242304797,-1658796.6458847127,5104465.558473214,3597723.0363195064,-250.23722496775068,-5260.19252718421,7303.41976341792,0.9945725324617245,-4.1082590936641855e-06,3.683084383863397e-05,0.10404554915652646
0.135,-9.723624642359037e-06,0.0005717585870733373,-0.007487381428139131,-49.0502363706658,55.41966651979524,5.134769941300722,-1658797.8962853036,5104439.25749789,3597759.5539110377,-249.92301145227202,-5260.197602316174,7303.616849154496,0.994574478152072,-4.241022989258885e-06,3.827827006591154e-05,0.10402694807270628
0.14,-9.327200297200259e-06,0.000563658897419288,-0.0074917854901545705,-49.05444443484483,55.41282167618895,5.1293222559548015,-1658799.1451147988,5104412.956497211,3597796.0724879033,-249.60878664897098,-5260.202669099506,7303.813897055742,0.9945764251455954,-4.414612422900962e-06,3.9697303122120574e-05,0.10400833115305341
0.145,-1.404783304533833e-06,0.0005832232878406793,-0.00746792341461361,-49.044320997215145,55.41257794483154,5.137400948667439,-1658800.3923731523,5104386.655471186,3597832.592049916,-249.29455472454524,-5260.207741018744,7304.0109079820895,0.9945783729343856,-4.585110518280136e-06,4.109629979336198e-05,0.10398970324633647
0.15,-4.8494290959537615e-06,0.0005422177726634529,-0.007475413276672267,-49.04946984339542,55.41738787906704,5.130249453188915,-1658801.6380605018,5104360.35441981,3597869.1125970827,-248.98038504844234,-5260.212809378376,7304.207958810494,0.9945803141679047,-4.740993736822399e-06,4.254600214713328e-05,0.1039711346337653
0.155,3.0210586501565528e-06,0.0005641396217130004,-0.007478512148946919,-49.0610246814005,55.40617084243223,5.1256309261625566,-1658802.8821769156,5104334.053343001,3597905.634129516,-248.66618053525764,-5260.2179142043415,7304.405014349402,0.9945822570035767,-4.894784217745525e-06,4.389285084246074e-05,0.10395254736239036
0.16,-1.597571721607639e-05,0.0005746597132798698,-0.007476526101688739,-49.06764921326909,55.395817701401626,5.129137545500771,-1658804.1247222298,5104307.752240726,3597942.1566470796,-248.35194506719762,-5260.222995778084,7304.602011172439,0.9945842002928625,-5.034702498400423e-06,4.529625258282654e-05,0.10393395234815454
0.165,-1.6756062228978996e-07,0.0005625847844756001,-0.007472624637852383,-49.061380786827115,55.387990636110914,5.133280723277547,-1658805.3656963662,5104281.451113151,3597978.680149557,-248.0377095430709,-5260.228034180645,7304.798979752747,0.9945861427150917,-5.224588772152653e-06,4.6720876099410995e-05,0.1039153622376343
0.17,-3.894362843063984e-06,0.0005890746521452615,-0.007462829675610634,-49.06913909478543,55.37683331757429,5.132659940884235,-1658806.6050994596,5104255.149960417,3598015.2046368644,-247.72352783308335,-5260.233059259296,7304.995943152275,0.9945880837760791,-5.372031227896122e-06,4.8119582534223385e-05,0.10389678178978436
0.17500000000000002,7.897735468298617e-06,0.0005724913117645655,-0.007465313578966997,-49.07378519894622,55.37800071656645,5.129028203646526,-1658807.8429316222,5104228.848782636,3598051.7301088786,-247.40933716309692,-5260.238053261006,7305.192862526098,0.9945900219409476,-5.535619616240641e-06,4.958318734360503e-05,0.10387822566048092
0.18,-9.317333048184628e-06,0.0005919960691737711,-0.007476155491608196,-49.06796470256286,55.375147606713526,5.130266609943799,-1658809.0791927779,5104202.547579846,3598088.25656549,-247.0951250677834,-5260.243062570571,7305.38978211162,0.9945919604046777,-5.665580932315585e-06,5.1008620394685186e-05,0.10385966331739178
0.185,-1.8406657368469625e-05,0.0005708001178349694,-0.007460389311184214,-49.066750369236956,55.370969678376575,5.127623436580638,-1658810.3138829703,5104176.246351989,3598124.7840067158,-246.78095196427773,-5260.2480803947465,7305.586708180677,0.9945939013317238,-5.843412944681873e-06,5.24780815835189e-05,0.10384107398157484
0.19,4.796173959175466e-07,0.0006082172090101082,-0.007463729846063798,-49.075584820078696,55.35885808678228,5.120758871338948,-1658811.547002337,5104149.945099015,3598161.312432538,-246.4667947017018,-5260.253109528571,7305.78362057772,0.9945958378196617,-6.038340827014945e-06,5.3892479961438024e-05,0.10382252381320922
0.195,-4.074486615117454e-06,0.0005534707519325935,-0.007455778147044208,-49.07527567442586,55.34663910386364,5.122944932443286,-1658812.7785508672,5104123.643820921,3598197.8418427557,-246.15261738280154,-5260.25812779978,7305.980466681011,0.9945977748216029,-6.196020473724827e-06,5.540481752969455e-05,0.10380396529917132
0.2,-1.0963095125409694e-05,0.0005993270544519539,-0.0074641425680345395,-49.08695058462142,55.34557529094542,5.127781684833254,-1658814.0085285925,5104097.342517806,3598234.3722371208,-245.83847273371435,-5260.2631180798335,7306.177279229492,0.9945997094194893,-6.350815522826115e-06,5.6779846605636046e-05,0.10378542652214538
0.20500000000000002,3.0170370428140478e-06,0.0005863193788623349,-0.0074832609856975195,-49.081718615092285,55.326973266167805,5.130801198618275,-1658815.2369354996,5104071.0411898345,3598270.90361557,-245.5242901137065,-5260.26807072773,7306.374100574216,0.99460164583301,-6.534638316873463e-06,5.826710984887288e-05,0.103766866910928
0.21,-3.1742607048777635e-05,0.0005717814225934249,-0.00746779636572227,-49.082928562298235,55.32217731980013,5.131638143429119,-1658816.4637716622,5104044.739837188,3598307.435977994,-245.2101749056166,-5260.272987693257,7306.570869002439,0.9946035868588969,-6.6803278230528295e-06,5.9725655806721734e-05,0.10374825972340927
0.215,-1.9370910767070372e-05,0.0005573429633897806,-0.007460086028640488,-49.09382393668282,55.30904239251056,5.1271837745031394,-1658817.689037275,5104018.438459979,3598343.969324239,-244.8960702779166,-5260.277895836185,7306.767628920187,0.9946055235258302,-6.908674465367736e-06,6.113903761177497e-05,0.10372969095778552
0.22,1.6357720386228344e-05,0.0005723500235191064,-0.007487033901578053,-49.09065709475139,55.318987683144144,5.122161773347766,-1658818.912732304,5103992.137058297,3598380.5036541196,-244.58194131071082,-5260.28277705001,7306.964323376205,0.9946074578474089,-7.102513290835005e-06,6.25197263809833e-05,0.10371114132605497
0.225,-3.989787144383742e-06,0.0005599391234374862,-0.007455159049866005,-49.101742838181075,55.31345140531152,5.117779379994577,-1658820.1348566774,5103965.835632066,3598417.038967569,-244.2678080314821,-5260.287715239344,7307.161056408523,0.9946093988050706,-7.21140741657448e-06,6.394699362734391e-05,0.10369252464567369
0.23,-9.78970086353826e-06,0.0005705302585673741,-0.007448061881939215,-49.095844245114954,55.30518388000231,5.119434100405622,-1658821.3554102872,5103939.534181171,3598453.5752645973,-243.95363580443586,-5260.292643138827,7307.357754897604,0.9946113311524174,-7.367673705702933e-06,6.533812672018972e-05,0.10367398718995477
0.23500000000000001,1.2449128847411569e-06,0.0005615104284081074,-0.007469191996029655,-49.08879995423831,55.28596834445466,5.12225018515255,-1658822.57439316,5103913.232705649,3598490.1125450823,-243.6395133121795,-5260.297565714066,7307.554439099824,0.9946132613112909,-7.541105545747972e-06,6.675409182802652e-05,0.1036554673461111
0.24,-1.080589138797032e-05,0.0005957303333644962,-0.0074603470043485935,-49.10110908039548,55.277093579029874,5.129590681923352,-1658823.791805611,5103886.931205595,3598526.650808852,-243.32546715537055,-5260.302455736052,7307.751068827155,0.9946151965996931,-7.684765589768896e-06,6.815048790254363e-05,0.10363689492361865
0.245,3.7379543157950544e-06,0.0005676117888114897,-0.007463317930229594,-49.09177577544205,55.269596667837035,5.124109709849066,-1658825.007647773,5103860.6296812575,3598563.19005573,-243.01139766111146,-5260.3072791175,7307.947682165889,0.9946171292418894,-7.867255018542053e-06,6.962885094700389e-05,0.1036183444596193
0.25,1.230360815396274e-05,0.0005533744576804624,-0.007467427327505023,-49.10448706207593,55.27207537235885,5.119415834625335,-1658826.221919724,5103834.328132724,3598599.7302856036,-242.69738272922913,-5260.312134115834,7308.144267346332,0.9946190623106471,-8.00629707393014e-06,7.10410634665423e-05,0.10359978657002909
0.255,6.321382442279218e-07,0.0005653681023272179,-0.007454635938522262,-49.099979285091415,55.249791293446414,5.122528766013672,-1658827.4346214472,5103808.026559902,3598636.2714983923,-242.38330650479645,-5260.316994996098,7308.340848199139,0.9946209960980336,-8.120353488729885e-06,7.242009257636868e-05,0.10358121842470074
0.26,-2.029080517485876e-06,0.0005627682047612062,-0.00745915621802102,-49.1039548413262,55.25001192405574,5.120672907903161,-1658828.6457529664,5103781.72496289,3598672.8136939146,-242.06930124779342,-5260.321809921373,7308.537360813714,0.9946229262226493,-8.266535098186662e-06,7.382592238481163e-05,0.10356268205146159
0.265,-1.1816316065839342e-05,0.0005765780125370946,-0.007479592791684558,-49.10555874166073,55.2315857629772,5.118017390225551,-1658829.8553144236,5103755.423341784,3598709.356872005,-241.75528153694086,-5260.326632379796,7308.7338753229305,0.9946248571703781,-8.418661681120837e-06,7.522459827233849e-05,0.10354413440263587
0.27,4.065891620036581e-06,0.0005489952332156402,-0.007453795066544106,-49.11544456663649,55.238410053633665,5.123693938178387,-1658831.0633058548,5103729.121696633,3598745.901032483,-241.44129099163936,-5260.331427834385,7308.930315880754,0.9946267930566803,-8.598703485318235e-06,7.665507912148904e-05,0.10352553590223398
0.275,-3.002871236187052e-06,0.0005672822943781803,-0.007447128756775706,-49.111104683688566,55.22127083539491,5.116026429980703,-1658832.2697272252,5103702.8200275535,3598782.446175276,-241.12725716261897,-5260.3362040673055,7309.126801169834,0.9946287219232554,-8.732109364390942e-06,7.802108460515879e-05,0.10350700151087461
0.28,-4.733131627814328e-06,0.000555891617207289,-0.007478590546048693,-49.10980249656341,55.20942929096947,5.109824340543375,-1658833.4745785438,5103676.518334573,3598818.9923003004,-240.8132703117063,-5260.340988234713,7309.32320877217,0.9946306487140775,-8.887823023719787e-06,7.943073313169296e-05,0.10348848366064108
0.28500000000000003,6.020197650781487e-06,0.0005692559333118974,-0.007457642767792493,-49.11197250750166,55.20261849670042,5.1186463819237815,-1658834.6778599923,5103650.216617651,3598855.5394072267,-240.4993090518359,-5260.3457803830015,7309.519561681066,0.9946325832987726,-9.044898342785375e-06,8.08116094847364e-05,0.10346988754262709
0.29,-1.2264369686968839e-05,0.0005699249306084502,-0.007470668925425156,-49.112134475205984,55.19868218784002,5.116425996184064,-1658835.8795716846,5103623.914876887,3598892.0874959296,-240.18536793749396,-5260.350525671791,7309.715919379644,0.9946345121136728,-9.178687408136637e-06,8.222849935817991e-05,0.10345134347422313
0.295,-1.1783370894015207e-06,0.0005702063802045002,-0.007463528215288387,-49.121115595060246,55.187303421597015,5.117220291680827,-1658837.079713696,5103597.613112376,3598928.636566389,-239.8714365511534,-5260.35527828345,7309.912264355202,0.9946364439485903,-9.358118324019966e-06,8.36423235157771e-05,0.1034327669826651
0.3,-2.2161576086284325e-05,0.0005669580901753316,-0.007459393301816691,-49.114450876958074,55.175158381241985,5.112775112383408,-1658838.2782860196,5103571.311324202,3598965.186618468,-239.55749286305172,-5260.359991201877,7310.108567333007,0.9946383735886133,-9.51005409117007e-06,8.505971430873975e-05,0.10341420820855378
0.305,1.7016264312892463e-05,0.0005523675933200225,-0.007444393446200813,-49.113089892449025,55.17169384399981,5.116155500920706,-1658839.4752887555,5103545.009512436,3599001.737651946,-239.24360157440412,-5260.364715535335,7310.30482388959,0.9946403018117018,-9.71332601410476e-06,8.646360307285144e-05,0.1033956596846478
0.31,-1.1219697438864733e-05,0.0005422667664455105,-0.007477658564688253,-49.11526554913354,55.16154370634586,5.107744167662473,-1658840.6707220923,5103518.707677074,3599038.289666722,-238.92973313176714,-5260.36942936171,7310.501086575156,0.9946422258144386,-9.815403558687774e-06,8.784133847717251e-05,0.10337714841519179
0.315,1.4692162912265783e-05,0.0005849253386792704,-0.007449811958921792,-49.12263131785919,55.149120963848425,5.116880416160926,-1658841.8645860972,5103492.4058181085,3599074.8426626693,-238.61586878031417,-5260.374156556453,7310.697292281315,0.9946441580679138,-9.985089617879098e-06,8.918665887916227e-05,0.10335855439879497
0.32,-3.5406735253943843e-06,0.0005727269806203732,-0.007446093166426968,-49.10999492671543,55.14010157831299,5.112539029322851,-1658843.056880799,5103466.103935687,3599111.396639591,-238.30201193214305,-5260.378812144744,7310.89347644798,0.9946460827687764,-1.0101359584281771e-05,9.064475072527052e-05,0.10334002958302303
0.325,-9.085513326732482e-06,0.0005475678664797126,-0.007438371444365497,-49.11750319937105,55.13245657462696,5.112619940646553,-1658844.2476064004,5103439.802029911,3599147.9515973628,-237.98822863702935,-5260.3834981226455,7311.0896322452345,0.994648006164265,-1.0259815306082847e-05,9.206779955638742e-05,0.10332151398285239
0.33,-1.122217802306699e-05,0.0005508613342084604,-0.007440690589863138,-49.12010483162011,55.1242600178351,5.112483991977803,-1658845.4367630517,5103413.500100769,3599184.5075358446,-237.67443187521334,-5260.388158737089,7311.285760430934,0.9946499272245852,-1.0425558462238645e-05,9.34268551436139e-05,0.10330301754962257
0.335,1.3728759822872076e-06,0.0005662830075874791,-0.007458342684692002,-49.126780253374434,55.11102396908943,5.117865155629021,-1658846.6243507422,5103387.198148363,3599221.0644549015,-237.36064431403793,-5260.392803707537,7311.481862308908,0.994651848537076,-1.0597465802793412e-05,9.479354844671517e-05,0.10328451531403225
0.34,-2.0712445634229544e-05,0.0005498745640444969,-0.007465848055312869,-49.11988905574777,55.09988504781665,5.095675443687349,-1658847.8103695128,5103360.896172876,3599257.622354381,-237.04686397550208,-5260.397391383426,7311.677929398182,0.9946537740572844,-1.0742040138695219e-05,9.620184142403678e-05,0.10326596914480134
0.34500000000000003,2.292562330834673e-05,0.0005583023910050442,-0.0074610338800706645,-49.12498958617102,55.09152770569729,5.100382808668133,-1658848.994819454,5103334.594174239,3599294.181233966,-236.7331124441573,-5260.402063164638,7311.873904701659,0.9946557011703739,-1.0937298312589687e-05,9.756363071004368e-05,0.10324740428207006
0.35000000000000003,7.93490025851431e-06,0.0005685434092800631,-0.007453119390697149,-49.12720549376155,55.08071212523168,5.111166439490597,-1658850.1777006485,5103308.292152344,3599330.7410933888,-236.41936543796822,-5260.40669473559,7312.069864488216,0.9946576266917789,-1.1026218551432529e-05,9.895764085223262e-05,0.1032288513434384
0.355,-1.4944186003039012e-05,0.0005704563866854061,-0.0074486563787035465,-49.118392161916816,55.06504741937696,5.105133988842254,-1658851.3590131826,5103281.990107452,3599367.3019325957,-236.10564815148823,-5260.411262402692,7312.265818259133,0.9946595498200591,-1.1155056342328688e-05,0.00010037324825752632,0.1032103180526689
0.36,1.4204376140176397e-05,0.0005756838044492188,-0.007433684842550341,-49.12281991657977,55.064587931089754,5.1038718793082145,-1658852.538757296,5103255.688039686,3599403.8637514133,-235.79199722349873,-5260.415844077704,7312.461708689853,0.9946614714485117,-1.1341278861028577e-05,0.00010178770926094038,0.10319179582951031
0.365,3.5552672530084443e-06,0.0005701772769209579,-0.007429558131590598,-49.12181292006316,55.04597638715915,5.101352936696698,-1658853.7169331184,5103229.3859490035,3599440.426549684,-235.47833178056797,-5260.420428459347,7312.6575995218855,0.9946633888678464,-1.1456363753276171e-05,0.00010322268916220524,0.10317331079188811
0.37,-1.0767362726546348e-06,0.0005502281627323693,-0.007428621057936346,-49.11396009353614,55.04080583788335,5.097738430578048,-1658854.893540717,5103203.083835457,3599476.990327228,-235.16470760774044,-5260.42499015183,7312.853418225662,0.9946653048785006,-1.159650795676618e-05,0.00010464122953293876,0.10315483598306723
0.375,-1.6838511730898352e-05,0.0005695410634715803,-0.007443054637023538,-49.11795331121982,55.026191792602994,5.1036431522239845,-1658856.0685803096,5103176.781699036,3599513.555083829,-234.851129448537,-5260.429578295806,7313.049222068876,0.9946672203075226,-1.1743025525081554e-05,0.0001060089686312656,0.10313636347043784
0.38,-6.394887281713372e-06,0.0005571576015648108,-0.007451394559445304,-49.12087371976882,55.019029812174544,5.108849056619977,-1658857.2420520673,5103150.479539817,3599550.120819357,-234.53757366351815,-5260.43410941804,7313.244989267265,0.99466913910685,-1.1933720873863414e-05,0.00010742066801174275,0.10311785503405528
0.385,-5.209482761868427e-06,0.0005625015324094666,-0.0074406364420738684,-49.12986025899372,55.00215697894375,5.091387734751882,-1658858.413956078,5103124.177358029,3599586.6875337027,-234.224030596951,-5260.438605529239,7313.440749032718,0.994671059713043,-1.2095256190766078e-05,0.00010880426579785157,0.10309932582063032
0.39,-2.3997927288470615e-06,0.000582898081536229,-0.007459251292679232,-49.115140977091784,54.99454453699304,5.101948088772998,-1658859.584292309,5103097.875153712,3599623.255226559,-233.91046172131468,-5260.4431213053385,7313.636393441686,0.9946729771983099,-1.2255218247374568e-05,0.0001102014580407571,0.10308082332276339
0.395,-5.035071222743718e-06,0.0005716736572818705,-0.007431480161808449,-49.12248152244484,54.982142789444794,5.09755197209259,-1658860.7530609437,5103071.572926869,3599659.823897689,-233.59699221015705,-5260.447616232844,7313.8320585461615,0.9946748991280511,-1.2413454853983627e-05,0.00011165009347839907,0.10306227449830657
0.4,7.400042176561524e-06,0.0005725689159466638,-0.0074318357646932075,-49.1209850772205,54.98474834136037,5.1019154967812295,-1658861.9202622063,5103045.270677595,3599696.393546996,-233.28351287607677,-5260.452092909428,7314.02766439421,0.9946768135587661,-1.2575344781331487e-05,0.00011307013911182158,0.10304379469712897
0.405,-7.2146323822441855e-06,0.0005898149114961576,-0.007427520489422396,-49.11470697372199,54.9671301774261,5.10045094660334,-1658863.0858961064,5103018.968405941,3599732.964174417,-232.97004715846782,-5260.456569281622,7314.2233038269615,0.9946787277358434,-1.2706543134530721e-05,0.00011449561433057314,0.10302531397235334
0.41000000000000003,3.672705192311261e-06,0.0005471133580988235,-0.007449728377300531,-49.10719485102057,54.94131315624536,5.099350781003111,-1658864.2499628388,5102992.666111937,3599769.5357798827,-232.65664581323372,-5260.46103191833,7314.418882564818,0.994680640450798,-1.2878524448122441e-05,0.00011596021100535188,0.10300684394623301
0.41500000000000004,-9.353012282803289e-06,0.0005733017699081819,-0.007445790349820539,-49.11448643516857,54.94144460420676,5.100706611862918,-1658865.4124627777,5102966.3637957,3599806.108363013,-232.34332974859336,-5260.4654631720905,7314.6143694033135,0.994682558551388,-1.3012442254920858e-05,0.00011732142457928916,0.10298831865810947
0.42,-7.3313923795690285e-06,0.0005643188772604456,-0.007434625614635809,-49.10849641752441,54.936798226239326,5.093879152519204,-1658866.5733960737,5102940.061457336,3599842.681923596,-232.0299886070507,-5260.469882264072,7314.80986392668,0.9946844752831552,-1.3185492788354622e-05,0.00011874440738973013,0.10296980312976621
0.425,-1.7117965744607628e-05,0.0005750330194635318,-0.00744579046868339,-49.11166151015355,54.919864354289516,5.090421742814713,-1658867.7327627453,5102913.759096785,3599879.256461594,-231.7166800584923,-5260.474337848724,7315.005335143946,0.9946863887974268,-1.3351200401278533e-05,0.00012014557308173919,0.10295131532875708
0.43,6.260504996001683e-06,0.0005795362373021757,-0.007417851977586627,-49.10630849639297,54.91451183442824,5.09629952931871,-1658868.89056292,5102887.456714016,3599915.8319767686,-231.40338978010726,-5260.4787697002885,7315.200734836688,0.9946883048355846,-1.3544005378947709e-05,0.00012157086253631635,0.10293279973068097
0.435,1.923704358753134e-05,0.0005730287005265326,-0.007436333724666461,-49.11410783290866,54.88850187097937,5.089707254803558,-1658870.0467967615,5102861.15430913,3599952.408468964,-231.09014680992118,-5260.483185041266,7315.3961433362965,0.9946902133382574,-1.3679824954125721e-05,0.00012301336716858338,0.10291435356482594
0.44,3.185647988774243e-06,0.000564015582175048,-0.007425931583785437,-49.1137426123258,54.8847089350563,5.081965579846279,-1658871.201464413,5102834.851882271,3599988.9859378994,-230.7769138437428,-5260.487558665491,7315.591430788415,0.9946921262534713,-1.3781706821112742e-05,0.00012444302734845983,0.10289586140047569
0.445,1.0482441625069153e-05,0.0005773308421421144,-0.007426348505425509,-49.115007023819444,54.86731464465287,5.092251653236448,-1658872.3545659115,5102808.549433467,3600025.564383204,-230.46368555623485,-5260.491962712913,7315.786691071964,0.9946940361497784,-1.392118240773442e-05,0.00012584614559344958,0.10287739507302777
0.45,3.535124251197913e-06,0.0005457466031335322,-0.007419455743049118,-49.111032355379415,54.861331597908546,5.082777336853596,-1658873.5061013817,5102782.246962831,3600062.1438047267,-230.15050248424274,-5260.49629168192,7315.981917997359,0.994695945804511,-1.4045937526065983e-05,0.00012728425199229714,0.10285892767037866
0.455,2.3198890850105016e-06,0.0005659479234455884,-0.007422069576750722,-49.109893103940514,54.8490465156515,5.084923876356252,-1658874.6560709928,5102755.944470451,3600098.7242022897,-229.83734200075955,-5260.500660314752,7316.177107065601,0.9946978533520873,-1.417984481485806e-05,0.0001286420303188326,0.10284047737593163
0.46,1.7142387591538833e-05,0.0005733693438146767,-0.007465445393602171,-49.1093340096295,54.83826279528616,5.077423854793334,-1658875.8044748923,5102729.641956294,3600135.305575714,-229.52421774688477,-5260.505002587053,7316.372262760334,0.9946997612208736,-1.4321968702455254e-05,0.00013004973159464348,0.10282202054562879
0.465,2.973725898700713e-06,0.0005725015407903417,-0.0074261374027811905,-49.1031351182074,54.81010576396629,5.084496497135925,-1658876.9513132167,5102703.33942039,3600171.88792478,-229.21111203361963,-5260.50935874689,7316.567363723552,0.994701679891255,-1.4429154561877906e-05,0.0001314796966828704,0.10280345580963725
0.47000000000000003,-1.5963638576337644e-05,0.0005585888780692377,-0.00742231471743834,-49.10693927973899,54.81376333380101,5.083385831956477,-1658878.096586248,5102677.036862886,3600208.4712491524,-228.89810042747735,-5260.5136432469935,7316.762385054186,0.9947035881122105,-1.4571338441860286e-05,0.00013290386366194236,0.1027849887918129
0.47500000000000003,1.4015087138393932e-05,0.0005510025684961033,-0.007429845972267513,-49.10169221379031,54.79091482225667,5.0788188109905485,-1658879.2402941734,5102650.734283926,3600245.055548676,-228.58506975762927,-5260.517940492883,7316.957424427405,0.9947054950101525,-1.4757038675442492e-05,0.00013428856710340995,0.10276653125127014
0.48,6.808543769443828e-06,0.0005786242583586455,-0.0074163392861475025,-49.09393772511613,54.790451932527624,5.074574581029005,-1658880.3824371086,5102624.43168352,3600281.6408231677,-228.27210429392838,-5260.522222138103,7317.152372264507,0.9947074035018926,-1.486624237751231e-05,0.0001356621068850717,0.10274805493687328
0.485,-5.5135708789863085e-06,0.0005453110193340227,-0.007437651175422652,-49.09906645794819,54.7779580664502,5.088740567362825,-1658881.5230153066,5102598.129061607,3600318.227072404,-227.95917499407543,-5260.526543244586,7317.347322444348,0.9947093081699804,-1.5000457685944337e-05,0.00013710248472444643,0.10272961217630523
0.49,-1.246388458104808e-05,0.0005562995977750958,-0.007431742795833166,-49.089707400370294,54.75843373856323,5.076209676775601,-1658882.6620289183,5102571.826418305,3600354.8142963774,-227.64626963943488,-5260.530777192026,7317.5422667188595,0.994711217977536,-1.5156766958983427e-05,0.00013845685462956323,0.10271111638775414
0.495,-1.313165325672695e-05,0.0005440348124079994,-0.007412161238436387,-49.09746428947964,54.738615233043966,5.068503430069523,-1658883.7994781714,5102545.523753755,3600391.4024948296,-227.33343164779555,-5260.535042999474,7317.737114165454,0.9947131259183571,-1.5333179692037543e-05,0.0001398367661798759,0.10269263525834291
0.5,-2.452288065142473e-05,0.0005623551457774462,-0.007400984244279688,-49.09666559142951,54.73707798472762,5.074813817071689,-1658884.9353632282,5102519.221067932,3600427.9916672716,-227.02059108493276,-5260.539285758127,7317.93186259121,0.994715028491889,-1.550809741206951e-05,0.0001411860071376125,0.10267420278916588
0.505,-3.801838688054871e-06,0.0005386457795298758,-0.007421254069455588,-49.098561677988826,54.72435364149252,5.075427137511864,-1658886.0696841334,5102492.918360944,3600464.5818135096,-226.70777098915744,-5260.543509620986,7318.12663257608,0.9947169278465885,-1.5716041308433538e-05,0.00014257788329434797,0.10265579808271
0.51,-4.846416695792902e-06,0.0005587817334113791,-0.007407499135324616,-49.09597794072299,54.69959143752486,5.078541559569019,-1658887.2024409918,5102466.615632906,3600501.172933492,-226.3949723089016,-5260.547705894295,7318.32136050665,0.9947188320692377,-1.5866378736648285e-05,0.00014391611617333087,0.10263734292751982
0.515,2.2806141661077766e-06,0.0005634925646346782,-0.007423562281623871,-49.08857655560317,54.696804659855744,5.0759709981455154,-1658888.333634023,5102440.312884024,3600537.765026914,-226.0822401931883,-5260.551846414152,7318.516008338238,0.9947207324115365,-1.60244756160428e-05,0.00014530415554773663,0.10261892194217928
0.52,1.4481154129630543e-05,0.0005629438142428311,-0.007402071845381606,-49.08566748539259,54.68052108503318,5.07668792988451,-1658889.463263496,5102414.010114375,3600574.3580935686,-225.76954899686984,-5260.556013732959,7318.710653415094,0.9947226365295346,-1.616606336266134e-05,0.00014670573755267804,0.10260046097272851
0.525,5.259337130037636e-06,0.0005510953056039723,-0.007409539624675405,-49.087273813890754,54.66458676959797,5.069845733033673,-1658890.5913296368,5102387.7073239535,3600610.952133318,-225.45690735084614,-5260.560154780596,7318.905246388682,0.9947245347923077,-1.6277162083467765e-05,0.00014810908519195316,0.1025820534059434
0.53,-1.0156928651002641e-05,0.0005614735124806992,-0.007397724740334154,-49.07770321514673,54.653405210394475,5.075495907294492,-1658891.717832617,5102361.404512839,3600647.5471458435,-225.1442846890634,-5260.564290825897,7319.099763702288,0.9947264346313343,-1.640815787197031e-05,0.0001494806024883682,0.10256362723673393
0.535,-5.1319217104428976e-06,0.0005937998267050005,-0.007433114203000748,-49.0770598624957,54.631516740831586,5.076176122987557,-1658892.8427726747,5102335.101681096,3600684.143130925,-224.8317384469859,-5260.5684065128335,7319.294269011987,0.9947283310937025,-1.6580147723668998e-05,0.0001508739760394028,0.10254523041896896
0.54,1.890107344663677e-05,0.0005824201599582884,-0.007394141018614644,-49.08234422859361,54.626166965907586,5.065308046153553,-1658893.966150125,5102308.798828883,3600720.7400883413,-224.51924170041985,-5260.57247856888,7319.488697408832,0.9947302362726931,-1.6747941899441794e-05,0.0001523490260490915,0.10252674555525906
0.545,1.4366774998974768e-05,0.0005700300155487965,-0.007424343739238546,-49.07373841393731,54.60974214713719,5.072290848861722,-1658895.0879650372,5102282.495956241,3600757.3380177817,-224.20672309844622,-5260.576578167764,7319.683078776659,0.9947321311236843,-1.6853038557740692e-05,0.00015380193845338983,0.10250835756694329
0.55,1.2229994595901839e-05,0.0005615830792580815,-0.007401227014846356,-49.077495813862235,54.59612764082139,5.059094190430785,-1658896.2082175645,5102256.1930632,3600793.936919053,-223.89428782228293,-5260.580638105106,7319.877429778615,0.9947340333759609,-1.6966247620825703e-05,0.00015522287533648038,0.10248989443646707
0.555,2.9777631808827743e-06,0.0005813152027162251,-0.007389202872057194,-49.06227458724295,54.58448588635267,5.063383220642867,-1658897.3269079078,5102229.890149808,3600830.536791865,-223.58184953335416,-5260.584718979428,7320.071694975306,0.9947359293647307,-1.7082597213879634e-05,0.00015662225951295158,0.1024714887592558
0.56,-5.975719948274673e-07,0.0005734900685471212,-0.007376990164747083,-49.05749802054616,54.57167293822315,5.050594513883959,-1658898.4440363117,5102203.5872160215,3600867.1376359705,-223.26951204873498,-5260.588795384569,7320.265947252107,0.9947378219230097,-1.7227005860680234e-05,0.00015806834455466887,0.10245311295170696
0.5650000000000001,8.330349293083676e-06,0.0005726618384353259,-0.007389409318944873,-49.06078988556201,54.55641199171146,5.062234364470441,-1658899.559603114,5102177.2842617575,3600903.739451152,-222.95720880763994,-5260.592910456614,7320.460125274524,0.9947397110151839,-1.7378296704847356e-05,0.00015949405441534058,0.10243476748189453
0.5700000000000001,3.896255169622055e-06,0.0005630703451699986,-0.007396598460609224,-49.06204328927707,54.53574127056516,5.058750041195273,-1658900.6736084844,5102150.981287117,3600940.3422371666,-222.64493942316565,-5260.596945712124,7320.654280582183,0.9947416029475113,-1.7507178001560798e-05,0.0001609199903221778,0.10241639108888399
0.5750000000000001,1.615875985201786e-05,0.0005614342546054028,-0.007398598343104595,-49.06043366041676,54.52159143995956,5.049415739638001,-1658901.7860525916,5102124.678292371,3600976.9459937443,-222.33270345648472,-5260.600952578178,7320.848350670362,0.9947434963824059,-1.7644633313832206e-05,0.00016232093790581348,0.10239799678453909
0.58,-2.5009761001035193e-06,0.0005575767013536103,-0.007391692455775656,-49.05544858515941,54.5050487405872,5.046603864353404,-1658902.8969355864,5102098.375277553,3601013.5507204914,-222.02049438958642,-5260.6049749413105,7321.042348057528,0.994745389988269,-1.7751175483658722e-05,0.00016372095575905565,0.10237959746663963
0.585,-7.553963063996266e-06,0.0005725603476101788,-0.007375035731814811,-49.05220297957746,54.497410882785026,5.067953300197029,-1658904.0062576723,5102072.072242644,3601050.156417072,-221.70834004931942,-5260.608988542008,7321.236284125546,0.9947472814853757,-1.790313169970613e-05,0.00016510660471356336,0.10236121529535393
0.59,-5.721658254017331e-06,0.0005525204514866177,-0.0073807798165854,-49.04229560846544,54.478059510463495,5.051148166522789,-1658905.114019141,5102045.769187885,3601086.7630834347,-221.39624745416114,-5260.6129149645785,7321.430261081064,0.9947491683726558,-1.807148150749422e-05,0.00016652822363573942,0.10234287451348022
0.595,7.509428514196712e-06,0.0005536884397100188,-0.0074077918280001775,-49.0358785070687,54.46930080041315,5.046695227471627,-1658906.2202203067,5102019.466113369,3601123.3707194133,-221.0842187538972,-5260.616891454406,7321.624130298191,0.9947510563976356,-1.8230149639824112e-05,0.0001679004743747697,0.10232451941191971
0.6,-8.45984384767606e-06,0.0005632282013945272,-0.007389338183007035,-49.042638080497284,54.448949647422666,5.046901832973405,-1658907.3248614408,5101993.163018924,3601159.9793246547,-220.77223493200586,-5260.620886413768,7321.817966353304,0.9947529509908746,-1.8356223794954463e-05,0.0001692790131303043,0.10230609709402272
0.605,1.0922029003643164e-05,0.0005658035836185718,-0.007411628222093918,-49.03868489199342,54.43773380382549,5.043795210315978,-1658908.427942688,5101966.8599046385,3601196.5888988813,-220.46026399121988,-5260.6248278713765,7322.01172416388,0.9947548405172802,-1.852444377570837e-05,0.0001706771925548396,0.1022877206392904
0.61,1.017289035661202e-05,0.0005363915559991008,-0.00737979069682206,-49.02738841056695,54.41801992839927,5.045104057826393,-1658909.5294641808,5101940.5567706395,3601233.199441793,-220.14833307853988,-5260.62877180176,7322.205440541147,0.9947567354009957,-1.864513130644199e-05,0.00017208673189215816,0.10226928870814155
0.615,4.065902341252245e-06,0.0005629953379717688,-0.0073970626765126396,-49.02962908296857,54.40447157557481,5.050278129278212,-1658910.629426254,5101914.253616969,3601269.810953143,-219.83649618560855,-5260.632696437915,7322.399099568806,0.9947586218153746,-1.876014829265345e-05,0.00017342293658823116,0.10225093592001218
0.62,2.3600939645757395e-06,0.0005703602035465793,-0.007398195095354944,-49.02864092726218,54.39040252760404,5.049921890123247,-1658911.7278292105,5101887.950443796,3601306.4234327064,-219.52468640590521,-5260.636572826149,7322.592725610471,0.9947605122918505,-1.889716086229031e-05,0.0001748237401553663,0.10223254014457676
0.625,-4.84828002803309e-07,0.0005417439098014725,-0.007391285142225611,-49.02523496033636,54.371831529927185,5.03806525367615,-1658912.8246732068,5101861.647251293,3601343.03688028,-219.21291207316844,-5260.640428208175,7322.786303843263,0.9947624027122166,-1.904029841968449e-05,0.00017624242332967772,0.10221414151815318
0.63,-2.723182502004683e-05,0.0005569130275321478,-0.007384061719193031,-49.01946012793151,54.3664958201439,5.040428385049815,-1658913.9199584306,5101835.344039466,3601379.651295504,-218.90117743029356,-5260.644302569739,7322.979785877215,0.9947642910374213,-1.9183195504751723e-05,0.0001775892137613903,0.10219576004361841
0.635,6.697237967659185e-06,0.0005370370308693125,-0.007405522283098741,-49.01603293589105,54.34251706887758,5.0406687261002645,-1658915.0136850923,5101809.040808272,3601416.266678137,-218.5894873093829,-5260.648175049864,7323.173267152426,0.9947661771678968,-1.9396482318832343e-05,0.0001789668951459987,0.10217739650918627
0.64,1.4289908177033767e-05,0.0005596595333105902,-0.007390553641632607,-49.00765912465306,54.32566836841895,5.032771623109447,-1658916.1058534663,5101782.737557818,3601452.8830279647,-218.2778622536424,-5260.652006514864,7323.366664073795,0.9947680684490283,-1.9520322823388223e-05,0.00018030381246372128,0.10215897955481724
0.645,-1.3279089277061424e-05,0.0005525613655281229,-0.0073985856198640525,-49.003900127036744,54.30092278173501,5.042871122316524,-1658917.1964638745,5101756.434288163,3601489.5003445926,-217.966301078341,-5260.655855527512,7323.5599870194455,0.99476995555523,-1.963105193868206e-05,0.0001816989299561521,0.10214059978660059
0.65,6.730560012549797e-07,0.0005479219291302242,-0.007383448621971357,-48.99643313183094,54.28858049886233,5.0377417324115035,-1658918.2855166786,5101730.1309994655,3601526.118627686,-217.65482049929133,-5260.659623540308,7323.753250377971,0.994771844372396,-1.9808534193884718e-05,0.00018306935459698289,0.10212220002122499
0.655,-1.266290910973067e-05,0.0005576566733276585,-0.007383476532694692,-48.99459374733129,54.27730531447644,5.044403049007146,-1658919.3730122175,5101703.827691889,3601562.7378769745,-217.34339510505606,-5260.6634066397055,7323.946465009492,0.9947737289862995,-1.9950127037623412e-05,0.00018443180403224105,0.10210383785928204
0.66,-8.505944724341534e-06,0.0005549770406957755,-0.0073833237132666825,-48.99248791529926,54.25560156911865,5.021018164163448,-1658920.4589507375,5101677.524365501,3601599.3580922955,-217.03201286122518,-5260.667149202169,7324.139663466326,0.994775613261332,-2.012737044360859e-05,0.0001858150589393302,0.10208547559860631
0.665,-1.1602270013174274e-06,0.0005422614277876783,-0.007377703126994942,-48.9842385883059,54.240426697278544,5.023768304000658,-1658921.543332408,5101651.221020262,3601635.9792732536,-216.72065531477818,-5260.670946327248,7324.332719624064,0.9947774971579558,-2.0293591775792537e-05,0.00018719271062166812,0.10206711368120719
0.67,2.9880314717131305e-06,0.0005674427023584535,-0.0073800592482525015,-48.9864004110604,54.2274656221161,5.026224250893419,-1658922.6261574754,5101624.917656089,3601672.601419398,-216.40937167675267,-5260.674722568522,7324.525738226426,0.9947793792861667,-2.043829746920316e-05,0.00018854061390163613,0.10204876570415658
0.675,-2.4487527603364526e-05,0.0005564322315751754,-0.007378930206365366,-48.97834919784089,54.219633608587706,5.032571403357019,-1658923.7074261818,5101598.614273126,3601709.2245305404,-216.09811090377613,-5260.678462761335,7324.718718670371,0.9947812616633807,-2.057911205617729e-05,0.0001899521998400502,0.10203041182938831
0.68,-3.1999907683106657e-06,0.0005586179925733636,-0.0073643321518096,-48.970319724651624,54.195666984990886,5.019130985769269,-1658924.7871387452,5101572.310871508,3601745.84860659,-215.7869144650969,-5260.682184267659,7324.911701261003,0.9947831434158732,-2.0785448021075054e-05,0.00019132939488996387,0.10201206074118022
0.685,1.8429135351119485e-05,0.0005449010046946813,-0.007362640967541912,-48.967915125226824,54.18222492365355,5.020432654560391,-1658925.8652954965,5101546.007451227,3601782.473647256,-215.47578608757829,-5260.68592812181,7325.104565128802,0.9947850211056883,-2.0939393224221675e-05,0.00019271745549233468,0.10199374591257786
0.6900000000000001,3.5010972729147508e-06,0.0005554165887864818,-0.007375082769431861,-48.96203306815557,54.165198099904046,5.026583377424386,-1658926.9418967129,5101519.704012285,3601819.0996521427,-215.16470040941851,-5260.689648720743,7325.297389483652,0.9947868980330111,-2.1036049161286197e-05,0.00019407691757135587,0.10197543524542668
0.6950000000000001,2.3026420860119523e-07,0.0005559137895409594,-0.0073825711141373065,-48.96118855802324,54.14523645659347,5.028640884017678,-1658928.0169426783,5101493.400554849,3601855.726621057,-214.85368572048594,-5260.693325868151,7325.490176255892,0.9947887777868524,-2.117251749772796e-05,0.00019545872511007596,0.10195709360781074
0.7000000000000001,1.3564973280163934e-06,0.0005502742002055055,-0.007378156582459995,-48.95372913382052,54.11494248146943,5.0193042271860415,-1658929.0904336912,5101467.097079137,3601892.3545537423,-214.54271951681588,-5260.696958646451,7325.682897866575,0.9947906591085612,-2.1317250689017884e-05,0.0001968409349982808,0.10193873331357135
0.705,-8.721309281141814e-06,0.0005809920343051755,-0.007356021766605542,-48.94703650940601,54.1094421777708,5.022868003605074,-1658930.162370079,5101440.7935852865,3601928.983449702,-214.2318355278823,-5260.700581893898,7325.8754860743475,0.9947925389675114,-2.145774355363815e-05,0.00019820940654432866,0.101920383963017
0.71,8.144537289617232e-06,0.0005605804919812273,-0.007340528863505576,-48.95229888812885,54.09308573229743,5.01871069418452,-1658931.2327521725,5101414.490073332,3601965.6133086095,-213.92100196654977,-5260.704199973685,7326.068076935029,0.9947944128312893,-2.1631115693298556e-05,0.0001996517060557889,0.10190208962990598
0.715,-2.839668508298424e-05,0.0005472001186306456,-0.007365770039933196,-48.93624322872627,54.0747572067792,5.011319108299183,-1658932.301580115,5101388.186543346,3602002.2441302887,-213.6101750033399,-5260.707793855509,7326.260594743668,0.9947962824215169,-2.1757335020769944e-05,0.00020104753977915772,0.10188383378551631
0.72,-8.851497810977951e-06,0.0005542229705834533,-0.007342581980596922,-48.931223764132376,54.06534493556495,5.019948238517195,-1658933.3688541765,5101361.882995323,3602038.875914376,-213.29944956328816,-5260.711415529595,7326.4530403179715,0.9947981581075687,-2.1971036598630373e-05,0.00020240078779751775,0.10186551515102422
0.725,2.935879816405093e-06,0.0005926726721038856,-0.0073588430381356495,-48.92652758826812,54.04012484923141,5.012989308175191,-1658934.4345747519,5101335.579429286,3602075.508660691,-212.98878060289337,-5260.714999688983,7326.645485381323,0.9948000275478259,-2.2137906111159176e-05,0.0002037764802726339,0.10184725414022684
0.73,7.42472200159659e-06,0.0005533949478049358,-0.007335217694568143,-48.92102294245742,54.021862737399644,5.012060694331255,-1658935.4987421415,5101309.275845359,3602112.142368959,-212.67817527555331,-5260.718570839485,7326.837821893578,0.9948019007715104,-2.2285258682553088e-05,0.00020525079746898484,0.10182895264544119
0.735,-8.806989305693674e-06,0.0005457259156629823,-0.007344503040308818,-48.92096905064902,54.00902338013466,4.998731043385116,-1658936.5613566607,5101282.972243625,3602148.777038753,-212.3676323752097,-5260.722122778607,7327.030095690722,0.99480376766358,-2.2411436327914184e-05,0.00020662857476018748,0.10181070987231902
0.74,1.0264986966991816e-05,0.0005737332941736683,-0.007374593946054881,-48.91448662407048,53.988063932969176,4.999860678664485,-1658937.6224184958,5101256.668624054,3602185.412669716,-212.05710171861094,-5260.725705616763,7327.222289480601,0.9948056365852326,-2.2576035207126953e-05,0.00020798314710088246,0.10179244398079616
0.745,4.241863223222062e-06,0.0005489679828683024,-0.007337210697422971,-48.908325970090715,53.97968602498353,5.009169549401442,-1658938.6819278635,5101230.364986648,3602222.0492614796,-211.74664534588126,-5260.729256992441,7327.41441611789,0.9948075128122547,-2.2700344799691738e-05,0.000209412225875137,0.10177410320661104
0.75,1.564019871007509e-06,0.0005656453295382327,-0.007372929635497357,-48.89751556668173,53.949211826086525,5.009483194415041,-1658939.7398851009,5101204.061331573,3602258.6868138933,-211.43624958425053,-5260.7327728160635,7327.606549342368,0.9948093792018939,-2.2833313266783733e-05,0.00021077818241028946,0.10175585537520705
0.755,7.0478618811358675e-06,0.0005661094287172424,-0.007337754427000237,-48.88478393355316,53.93476036306794,5.003971251146442,-1658940.796290634,5101177.757659023,3602295.325326712,-211.12596365733552,-5260.736247445585,7327.798578131061,0.9948112543308348,-2.2977202951386752e-05,0.00021218493257143544,0.10173751867582354
0.76,-1.7633688461698175e-05,0.0005711513543548354,-0.007339862777179452,-48.883079102469544,53.91984128296165,4.993373985209811,-1658941.8511449425,5101151.453969043,3602331.9647995397,-210.81575974683622,-5260.739744521238,7327.9905528936515,0.9948131201748784,-2.3107553540432604e-05,0.00021359423368988472,0.10171926942063308
0.765,-1.2331082516555367e-05,0.000556373619540575,-0.0073513454878801465,-48.89017570111477,53.90048803295931,4.998007926459455,-1658942.9044482987,5101125.150261531,3602368.6052320423,-210.50558273095396,-5260.7432603274,7328.182448230182,0.9948149862140745,-2.3300571225456554e-05,0.000215009797575439,0.1017010149003492
0.77,8.597358123318507e-06,0.0005258958121162963,-0.0073458999400640304,-48.879849702851665,53.88385896779904,4.994555872591617,-1658943.9562008074,5101098.846536613,3602405.2466238663,-210.1954207135258,-5260.746706625116,7328.3742813485815,0.994816854843565,-2.347665001831098e-05,0.00021638995614010274,0.1016827317856446
0.775,1.2588966672390355e-05,0.0005567925725039041,-0.007336577756529504,-48.872432580855154,53.864850434287135,4.99347427248273,-1658945.0064027002,5101072.542794453,3602441.888974708,-209.88533647422463,-5260.750157311167,7328.566055293941,0.9948187217688883,-2.3592928276835923e-05,0.0002176996355121603,0.10166446217020816
0.78,1.0467401418031753e-05,0.0005595059431940653,-0.0073223112779800285,-48.86134198187482,53.84252603180875,4.989748405078486,-1658946.0550543522,5101046.239035081,3602478.532284258,-209.57532430683435,-5260.7535916128245,7328.757764580992,0.9948205859713793,-2.3707126892796945e-05,0.00021908717156136112,0.10164621570105303
0.785,-6.244372979242458e-07,0.0005302401187646647,-0.007330440916820113,-48.86061305148359,53.82909014617501,4.992611749773116,-1658947.102156171,5101019.935258552,3602515.1765521476,-209.26540327976423,-5260.757019846671,7328.949391438883,0.9948224462109706,-2.3827283638406545e-05,0.000220480917551965,0.10162800468003921
0.79,1.6301055598022282e-05,0.0005569220206899027,-0.0073291799617957575,-48.869242343207475,53.803916580240525,4.986490998664763,-1658948.1477084777,5100993.631464965,3602551.8217780804,-208.9555193237713,-5260.760415123205,7329.140981682793,0.9948243081959456,-2.3967595313987267e-05,0.00022179905913271818,0.10160977341373231
0.795,-7.868886573987081e-06,0.0005336940680437848,-0.007326124597037492,-48.849282192254925,53.7957662478629,4.988801611477615,-1658949.1917113764,5100967.32765451,3602588.4679616713,-208.64564017259158,-5260.763766789162,7329.332454689964,0.9948261695109368,-2.4072589407922083e-05,0.00022318785971443779,0.10159154523820607
0.8,6.140170411803198e-06,0.0005546168315262248,-0.00732285079594341,-48.844775871385494,53.77101532467064,4.984392182877986,-1658950.2341651618,5100941.0238272445,3602625.115102626,-208.3358740191494,-5260.767139260688,7329.523927092879,0.9948280297257309,-2.4231794607561755e-05,0.00022451275231238614,0.10157332464217368
0.805,-6.031135481710259e-07,0.0005499928777139415,-0.007342340487435386,-48.83050403984497,53.75548237239699,4.979018599923731,-1658951.2750702794,5100914.7199831735,3602661.763200693,-208.02617295757395,-5260.770489298834,7329.7152997380335,0.9948298887628942,-2.4361469441696968e-05,0.00022589323877812538,0.10155511214493784
0.81,1.0760385222785146e-05,0.000559378292200881,-0.0073257247953441625,-48.826092256971634,53.73645033036737,4.9761500558293745,-1658952.314427119,5100888.416122296,3602698.4122554814,-207.716562867642,-5260.773861831068,7329.906615534927,0.9948317524142493,-2.4506752359635098e-05,0.00022726051182449432,0.10153685114515207
0.8150000000000001,3.906047704031163e-06,0.0005654294875443626,-0.007314900018276441,-48.82056366645583,53.708885342881864,4.989052044674359,-1658953.3522360488,5100862.112244594,3602735.062266668,-207.40700909923876,-5260.777218757427,7330.097859049136,0.9948336115068537,-2.4626146319147263e-05,0.0002286540126175856,0.10151863142855078
0.8200000000000001,1.2952838424101065e-05,0.0005601403972771501,-0.007318786880140897,-48.82252284739565,53.6918803489939,4.980916577750987,-1658954.3884974523,5100835.808350346,3602771.713233917,-207.09755229842384,-5260.780480609734,7330.289040663821,0.9948354675131301,-2.4764117168599986e-05,0.00023006082422395775,0.10150043860342407
0.8250000000000001,-1.944740408186475e-05,0.0005335723922548001,-0.007313268823288945,-48.805296155263335,53.67372486898468,4.97203181187738,-1658955.423211615,5100809.504439796,3602808.365156864,-206.788112819184,-5260.783739130497,7330.4801381462585,0.9948373241744611,-2.487824796211239e-05,0.000231456776708853,0.10148223607228828
0.8300000000000001,-4.765804756498228e-06,0.0005675523737818995,-0.007302666898011168,-48.79777253232788,53.65735906232617,4.97757384940506,-1658956.4563788415,5100783.200512864,3602845.0180351115,-206.47877777352355,-5260.78703400202,7330.671160769813,0.9948391791145265,-2.5066217529277682e-05,0.00023277843222887937,0.10146404725133683
0.835,9.642623722613768e-06,0.0005716551495102096,-0.007322774814106153,-48.79257319196625,53.63491770286018,4.968604687352671,-1658957.4879995834,5100756.896569547,3602881.671868383,-206.16951891468867,-5260.790292604779,7330.86214798252,0.9948410310124964,-2.5226285708853693e-05,0.00023418832401367692,0.10144588475367847
0.84,9.248171955312865e-06,0.0005684218620964679,-0.007336479294404065,-48.79290352241339,53.619429265419264,4.97247599193717,-1658958.518074176,5100730.592609932,3602918.3266563346,-205.86031818679692,-5260.793553372186,7331.053032615147,0.994842887674118,-2.535157093722027e-05,0.00023561207266513338,0.10142767220276422
0.845,-1.1609397418970147e-05,0.0005556988137165908,-0.007297503584886281,-48.78344885240632,53.60139725850542,4.973732340772771,-1658959.5466028585,5100704.288634122,3602954.9823986017,-205.55115473820788,-5260.7967702885635,7331.243874217437,0.9948447474765918,-2.5477025411172983e-05,0.00023702767881514462,0.10140942553351276
0.85,9.214833498234985e-06,0.0005641095064363845,-0.00728771620788558,-48.771427134072354,53.57845173798315,4.962620712226063,-1658960.5735859293,5100677.9846422775,3602991.6390949455,-205.24207367262727,-5260.799967921183,7331.434663334344,0.9948465970691583,-2.565110629662292e-05,0.00023840635583787743,0.10139127578024727
0.855,-2.75304990582806e-06,0.0005517775789328347,-0.007294064250640554,-48.76090809848343,53.554561475850804,4.961516207444283,-1658961.5990238122,5100651.680634385,3603028.2967449725,-204.93307945219928,-5260.803189004876,7331.625347500843,0.994848443844535,-2.5775520978994205e-05,0.00023981123026947234,0.10137315032247757
0.86,7.008120873713613e-07,0.0005705859110368439,-0.007300305487497876,-48.75516796463059,53.544562688748634,4.966101119282386,-1658962.6229169606,5100625.37661044,3603064.9553482155,-204.6241798849414,-5260.806388802436,7331.815949612734,0.9948502919028801,-2.5926579718119587e-05,0.0002411824001595563,0.1013550090504498
0.865,2.4977144004565107e-05,0.0005451351961677439,-0.007294615061790413,-48.75474683442157,53.51536779442447,4.965863248226303,-1658963.6452657497,5100599.072570551,3603101.6149044344,-204.31533575998407,-5260.809566964475,7332.00653797726,0.9948521411985094,-2.6073817819435256e-05,0.0002426012234165983,0.10133685221844853
0.87,-1.082112522635101e-05,0.000565747407762894,-0.007293045755991908,-48.747558754606395,53.48852139390519,4.957922859064424,-1658964.6660704685,5100572.768514914,3603138.2754133213,-204.00655170752052,-5260.812687554812,7332.1970167530635,0.994853988736477,-2.6154226320519404e-05,0.0002439628979355414,0.10131870949228769
0.875,5.630018896952545e-06,0.0005283840823462312,-0.007303241280959591,-48.740077263235825,53.477888727413166,4.96882461597535,-1658965.6853314575,5100546.464443696,3603174.936874312,-203.69784392582113,-5260.815800183474,7332.3873795702675,0.9948558355293223,-2.6328889989814213e-05,0.0002453667702416888,0.10130057065580392
0.88,-1.8598480540416008e-06,0.0005439313772329326,-0.007296885336620337,-48.73712139821532,53.45871907282129,4.9583723312241235,-1658966.7030490888,5100520.160357024,3603211.599287124,-203.38920863175431,-5260.8188683843055,7332.5777451782715,0.9948576845951568,-2.6453181296811296e-05,0.00024668188026457527,0.10128240642008228
0.885,1.0090517092360628e-05,0.0005532301853454082,-0.007313780266342227,-48.72073289911972,53.44323859040483,4.949211237387966,-1658967.7192236444,5100493.856254985,3603248.2626515254,-203.08061353863434,-5260.821947483987,7332.7680154208965,0.9948595317084009,-2.6600033723163435e-05,0.00024803376251025447,0.10126425796218566
0.89,-1.3596798048916372e-05,0.0005419397417693459,-0.007286245155179962,-48.72016752552394,53.409973922019965,4.9510934416063535,-1658968.7338554629,5100467.552137445,3603284.926967114,-202.77211385853113,-5260.825068389844,7332.958220083698,0.9948613827600983,-2.6719528372376033e-05,0.00024941179643111247,0.10124606744208857
0.895,1.74001532014015e-05,0.0005327567372428899,-0.00730058394168107,-48.70228214899164,53.39474054780271,4.950354897549899,-1658969.7469449597,5100441.248004488,3603321.592233426,-202.46368493105751,-5260.828114329593,7333.148304678171,0.99486322651448,-2.6895062049019398e-05,0.0002507557554231877,0.10122794538765102
0.9,9.949596615285788e-06,0.000561630178008297,-0.007310936878441889,-48.69458660771855,53.36747152201704,4.947485717987974,-1658970.7584925932,5100414.943856271,3603358.2584500615,-202.15536846639063,-5260.83117251011,7333.3383494639575,0.994865073572866,-2.699118644647997e-05,0.0002520847181777777,0.10120978761773336
0.905,7.991580610349272e-06,0.0005503171747970522,-0.0072676475895057345,-48.697531367735515,53.35026594590002,4.9487639637020076,-1658971.768498859,5100388.639692833,3603394.925616663,-201.8471377752403,-5260.834202811319,7333.528291147692,0.9948669228983593,-2.7113153792760302e-05,0.0002534836079205073,0.10119160406717277
0.91,2.2854873560976628e-08,0.000570239842305181,-0.007251773415214418,-48.68221200027918,53.335750797302204,4.947370755286537,-1658972.7769640342,5100362.33551435,3603431.593732824,-201.5389323336847,-5260.837190135025,7333.718173346058,0.9948687609473004,-2.7237101658213718e-05,0.0002548538678441585,0.10117352815252381
0.915,3.722108841435925e-06,0.0005587377717801271,-0.007273062868153118,-48.681724009731965,53.31188929774148,4.941182645623885,-1658973.7838884292,5100336.031320903,3603468.2627982944,-201.23082570170425,-5260.840188599148,7333.908014665153,0.9948705946382309,-2.7385898107808794e-05,0.00025627166430287787,0.10115549168987091
0.92,1.4802328207402992e-05,0.0005427640691462557,-0.0072492981867925,-48.67420316433614,53.29539058223856,4.939392274423555,-1658974.7892723987,5100309.727112519,3603504.9328127094,-200.9227620776241,-5260.84316521757,7334.097751378092,0.9948724333907131,-2.752259874654433e-05,0.0002576617870393107,0.10113740224146205
0.925,2.0976579366384444e-05,0.0005629572101929141,-0.0072844010661112435,-48.66709364404834,53.26322982806608,4.9279323867127305,-1658975.7931162172,5100283.422889271,3603541.6037756666,-200.61476536454182,-5260.84613399451,7334.287431553043,0.9948742658157738,-2.76276867090583e-05,0.00025901498339599746,0.10111937186056111
0.93,-1.1960194301100936e-05,0.0005515365549718707,-0.007303431748924697,-48.656843988933424,53.237808464453295,4.939475968151961,-1658976.7954202546,5100257.118651195,3603578.275686656,-200.30684952554975,-5260.8490962419955,7334.476964176923,0.9948761067718801,-2.7722545678204726e-05,0.00026041996217410066,0.10110125413332166
0.935,-1.7169681061715645e-05,0.0005559273010483373,-0.007269593215148474,-48.64580260050263,53.229014312843255,4.936895196658706,-1658977.7961849933,5100230.814398496,3603614.9485451756,-199.99904603676967,-5260.851983204389,7334.666443611797,0.9948779522104665,-2.789645044447443e-05,0.0002617882093308403,0.10108308906157475
0.9400000000000001,2.8520960243431976e-06,0.000548987709754548,-0.007283587694962381,-48.6360193003073,53.20203945335408,4.940159168864579,-1658978.7954108843,5100204.5101313125,3603651.622351031,-199.69131033768352,-5260.854890378187,7334.855898522229,0.9948797887625143,-2.808439963934852e-05,0.0002631660629237729,0.10106500812222227
0.9450000000000001,1.3933029861626554e-05,0.0005458629963286605,-0.007256171809072681,-48.62479515541426,53.17985619756222,4.927391019888182,-1658979.7930983528,5100178.205849711,3603688.297103953,-199.3836770339754,-5260.857750401561,7335.045270337491,0.9948816285252795,-2.8220806504036004e-05,0.00026453171405140604,0.1010468923294833
0.9500000000000001,2.7781379488264214e-06,0.0005571652077106051,-0.007266090240427012,-48.61783588313151,53.159355263147745,4.92858682872079,-1658980.789247854,5100151.901553733,3603724.972803466,-199.0761233834282,-5260.860640401582,7335.234534900258,0.9948834610346736,-2.8328845328231432e-05,0.00026589239446027504,0.10102884468497239
0.9550000000000001,5.05647194042541e-06,0.0005420170170887664,-0.0072502897768022675,-48.60858751182249,53.1366492573019,4.930302198074201,-1658981.7838597752,5100125.597243382,3603761.64944914,-198.76864512786008,-5260.863500414525,7335.42373451001,0.9948852957111525,-2.8467489903203725e-05,0.0002672783676219108,0.10101077234438409
0.96,1.0145728163980993e-05,0.0005421354447000751,-0.007267673324995042,-48.605665468242236,53.11747185816276,4.918101946447466,-1658982.7769345308,5100099.292918811,3603798.327040635,-198.4612571745339,-5260.86632803544,7335.612863578528,0.9948871260784197,-2.8596631882378163e-05,0.00026862724037996416,0.10099273926902436
0.965,7.159951396559013e-06,0.0005539066726273986,-0.0072621557412821,-48.59794873955067,53.09832953139677,4.916120019425067,-1658983.768472441,5100072.988580057,3603835.005577524,-198.153906916146,-5260.869173224323,7335.801892227264,0.9948889605055273,-2.8713157338353468e-05,0.0002699776913063639,0.10097466292012214
0.97,-6.526977571690903e-06,0.0005378362139913513,-0.0072660298791015895,-48.5837179275795,53.07056450972948,4.922546656965079,-1658984.7584737807,5100046.68422711,3603871.6850593877,-197.84662891214757,-5260.87200562833,7335.990853181341,0.9948907932015844,-2.884007684108765e-05,0.0002713566664815541,0.10095660026234995
0.975,-2.0472403070010468e-06,0.0005339433109255176,-0.007248610552003673,-48.578379503941726,53.052377549276024,4.91337482403136,-1658985.7469390496,5100020.379860132,3603908.3654858717,-197.53947869334758,-5260.874785658403,7336.17974035081,0.9948926265553936,-2.899698541432125e-05,0.00027269221594451823,0.10093852794567851
0.98,9.944319819578354e-06,0.0005403093831574024,-0.007262521449292464,-48.5690863458611,53.021723433665784,4.915823636154325,-1658986.7338686942,5099994.0754792215,3603945.0468565766,-197.23237909554263,-5260.877578568769,7336.368541598039,0.9948944551871939,-2.914175759892851e-05,0.0002740192144738415,0.1009204989187274
0.985,-2.3081880652823067e-05,0.0005524725921986788,-0.007258314605286602,-48.55824829810165,53.006626895936364,4.906925257085732,-1658987.719263105,5099967.77108448,3603981.729171036,-196.92538520572427,-5260.880318034224,7336.557242055384,0.9948962869961084,-2.925831962971912e-05,0.0002753650713095296,0.1009024352500243
0.99,-2.1821824491461837e-06,0.0005521382581797776,-0.007262321495054209,-48.55261305495,52.98212792641213,4.906493034316517,-1658988.7031227213,5099941.466675966,3604018.412428827,-196.61846137630025,-5260.883087633997,7336.745874474263,0.9948981174033944,-2.946009110895841e-05,0.00027673285013031995,0.10088438203316906
0.995,1.615933695742143e-05,0.0005346693807789238,-0.007251887224616663,-48.536428387646986,52.95946480866567,4.90765258118151,-1658989.685447905,5099915.162253692,3604055.0966295633,-196.31161206140155,-5260.885821777485,7336.934420004852,0.9948999484933634,-2.9609798351907387e-05,0.00027810506812643554,0.10086631880233259
1.0,-6.351578461433711e-06,0.0005336907879627808,-0.007255599844098763,-48.53031687775312,52.94357862508382,4.900602348930633,-1658990.6662391433,5099888.857817788,3604091.7817728617,-196.00488330973297,-5260.888540003164,7337.122899328206,0.9949017766363508,-2.9709473335219577e-05,0.00027943846244369615,0.10084828147928745
1.0050000000000001,-8.297030672301642e-06,0.0005569863039763432,-0.007254362921621179,-48.51971439054902,52.91925630202335,4.904890529346248,-1658991.6454968697,5099862.553368264,3604128.4678583816,-195.69820719573588,-5260.891269553828,7337.311308623593,0.9949036053854245,-2.986489455320762e-05,0.00028076374691564143,0.10083023490446734
1.01,-3.918309685877116e-06,0.0005437336474538514,-0.007248774343123625,-48.50341233319194,52.88498855088092,4.900881811539591,-1658992.6232214717,5099836.2489052005,3604165.1548857754,-195.39163359053705,-5260.89395561184,7337.499649054112,0.9949054334770625,-3.0031025967522228e-05,0.00028214648296822774,0.10081219137246268
1.0150000000000001,5.81163507805867e-06,0.0005655176681758375,-0.007227467348203343,-48.5010599909254,52.87287336198097,4.895008831535289,-1658993.599413544,5099809.944428762,3604201.842854553,-195.08519531267217,-5260.896619705106,7337.687861769089,0.9949072598410177,-3.018292232321477e-05,0.0002834973600683226,0.10079416170530853
1.02,-1.4696805949697252e-05,0.0005419875889895176,-0.007223147992915622,-48.49218566560715,52.85338608007264,4.895783174746652,-1658994.574073501,5099783.639938985,3604238.531764257,-194.77878751445698,-5260.899291432858,7337.876019920108,0.9949090804935292,-3.0316091841456033e-05,0.0002849048731877795,0.10077618499262642
1.025,4.594305689498404e-06,0.0005380657245432674,-0.007218469948326016,-48.47781086973415,52.83022098322418,4.8886691302266305,-1658995.5472016227,5099757.335435904,3604275.2216146006,-194.47246124032137,-5260.901940984775,7338.0641175629435,0.9949108997464966,-3.0494340179623514e-05,0.00028624869391136523,0.1007582190066748
1.03,1.6125284678604805e-05,0.0005342601305460602,-0.007243282147341026,-48.480321019852724,52.7959053034389,4.88638975655133,-1658996.51879837,5099731.030919545,3604311.9124052003,-194.16623762749037,-5260.904602314011,7338.252122225957,0.9949127174993314,-3.062361491693824e-05,0.00028758761947868917,0.10074026460979249
1.035,1.395697564114022e-06,0.0005536723805584277,-0.007223652193224309,-48.457974785432526,52.76855264801941,4.890164818824102,-1658997.4888641322,5099704.726390049,3604348.604135476,-193.86006721962463,-5260.907196144823,7338.439988141134,0.9949145411778421,-3.07232682478104e-05,0.0002889199815519496,0.10072224845687874
1.04,-1.2192451273412274e-05,0.0005328134246957964,-0.007231256678156966,-48.44873875013854,52.754521454962806,4.886432673288547,-1658998.457399442,5099678.421847645,3604385.2968048993,-193.55405674606706,-5260.90976554291,7338.6277811596065,0.994916359571069,-3.086443220459991e-05,0.0002902969198696274,0.10070428110530556
1.045,-2.240057995738039e-05,0.0005687668158670879,-0.007229564952884766,-48.4430683565831,52.72860290722313,4.882050527800531,-1658999.4244048684,5099652.117292372,3604421.990413161,-193.24811378440478,-5260.912343783922,7338.815523491009,0.9949181795662442,-3.103414788370535e-05,0.0002916185542522574,0.10068629481757384
1.05,-1.2597881437023474e-05,0.000533555204829373,-0.007221818255529831,-48.430296408825654,52.7112051165188,4.879143909043841,-1659000.38988076,5099625.812724265,3604458.684959875,-192.94224288476377,-5260.914898873508,7339.0031620681,0.9949199987816089,-3.1238302985641264e-05,0.00029302704582988927,0.10066831270922559
1.055,1.2306735476303992e-06,0.0005382478039093881,-0.0072071058481915935,-48.424454343707545,52.696571882618755,4.875532374204625,-1659001.3538275233,5099599.50814337,3604495.380444634,-192.63646246543195,-5260.917459079261,7339.19074151929,0.9949218157473649,-3.140920841667e-05,0.0002943504231291066,0.10065034983176514
1.06,-1.3714487107668713e-05,0.000517856211870039,-0.0072316812948421206,-48.40675046510042,52.66193003757788,4.876434298954243,-1659002.3162455184,5099573.203549674,3604532.076867151,-192.3307355464534,-5260.920019337266,7339.378265326195,0.9949236286832935,-3.154688796267303e-05,0.00029568895303254113,0.10063242350507502
1.065,7.628954529078987e-06,0.00055755980554793,-0.007219834084922179,-48.39767298543844,52.625227285699154,4.880355265201051,-1659003.27713525,5099546.898943275,3604568.774227001,-192.02515710628938,-5260.922540183799,7339.565674668739,0.9949254474900042,-3.171662876042629e-05,0.00029697300078973765,0.10061443603135324
1.07,-1.557834066666403e-05,0.0005352195379084597,-0.007225126337812745,-48.38650282694739,52.61585026234812,4.876718028237871,-1659004.2364973829,5099520.5943244565,3604605.472523594,-191.71969603066486,-5260.924987371359,7339.752962473125,0.9949272629624614,-3.1843259805682406e-05,0.0002983611733239911,0.10059647797334881
1.075,4.0217552454475844e-06,0.0005635733972147431,-0.007205628485655885,-48.38139373566028,52.58987341526185,4.867244978346881,-1659005.19433238,5099494.289693344,3604642.1717565507,-191.4143028673444,-5260.927457635972,7339.940220335241,0.994929079454459,-3.2022000334120257e-05,0.00029968794155537,0.10057850673793158
1.08,7.10171006425876e-07,0.0005303371973375976,-0.007215634800479578,-48.36861764103865,52.561707478099336,4.868759840992059,-1659006.1506405692,5099467.985049891,3604678.8719255,-191.1089727737893,-5260.92992349488,7340.1273594719605,0.9949308906985053,-3.215910395251809e-05,0.00030109016481835873,0.10056058395009314
1.085,3.314274553335677e-06,0.0005498318531998559,-0.007195341523949306,-48.354008257215355,52.53822246980113,4.874863057642549,-1659007.1054223967,5099441.680394202,3604715.573029919,-190.8037581778612,-5260.932352248917,7340.3144080720185,0.9949327041577327,-3.2296096456884984e-05,0.00030240888533648137,0.10054263624557411
1.09,-1.1062205321752831e-06,0.0005286382068087307,-0.007176827457881273,-48.34579027517796,52.51102365421795,4.863287007385605,-1659008.058678454,5099415.37572647,3604752.275069438,-190.49866476190067,-5260.934740357339,7340.501399475811,0.9949345121769183,-3.24314964493209e-05,0.0003037767516296772,0.10052473898081461
1.095,-2.410922233184012e-05,0.0005529011946055159,-0.007174958560101615,-48.32780480685718,52.48500785897629,4.860786286997934,-1659009.0104092355,5099389.07104678,3604788.9780435963,-190.19364782786144,-5260.937135828057,7340.688263856434,0.9949363152361134,-3.257255141424425e-05,0.0003050907926770077,0.10050688773921178
1.1,8.208979644742988e-06,0.0005512653875368033,-0.007219803180187277,-48.31538253916687,52.46739228801516,4.855474510493919,-1659009.9606152568,5099362.766355126,3604825.6819518544,-189.88876068030532,-5260.939525614691,7340.875039434183,0.9949381174833108,-3.2776917741266146e-05,0.00030645940419666407,0.10048904112923329
1.105,1.3041953774598982e-05,0.0005389804328011785,-0.007213847608549389,-48.316341922830766,52.43915610932277,4.852707448895503,-1659010.9092970574,5099336.46165149,3604862.386793823,-189.58395965133198,-5260.9419286877,7341.061747856276,0.9949399306763662,-3.2900520935984515e-05,0.0003078320621876466,0.10047108291784695
1.11,1.773328244195693e-06,0.0005214293290466512,-0.007214388375535363,-48.2991378145827,52.41195147815357,4.860032557622106,-1659011.8564549745,5099310.156935961,3604899.0925690476,-189.27920710991444,-5260.944283233268,7341.248342104877,0.9949417420576486,-3.3009012532402886e-05,0.00030917537752304876,0.1004531394844501
1.115,-1.846722512200187e-05,0.0005350029648974009,-0.007169383471321411,-48.28943790014242,52.39351858056179,4.859091199019798,-1659012.8020894811,5099283.85220878,3604935.799277077,-188.97459561907112,-5260.946589038964,7341.434869596423,0.9949435532619958,-3.314112594213037e-05,0.0003104722069763277,0.10043519468328128
1.12,1.2788256946450782e-05,0.0005507267756131548,-0.007190170564147609,-48.27995627505487,52.35928323959209,4.853385778014057,-1659013.7462011331,5099257.547470098,3604972.5069175926,-188.6700651244154,-5260.948883484186,7341.621336611139,0.9949453528305645,-3.3326958106243105e-05,0.0003117977204013934,0.10041736180740317
1.125,2.5463884653131733e-06,0.0005378394128981007,-0.007183686191619363,-48.27494463748995,52.348756445306705,4.8480810929637315,-1659014.6887903882,5099231.242720018,3605009.2154900976,-188.36563688465426,-5260.951148559159,7341.80766540143,0.9949471572855542,-3.343901008055803e-05,0.0003131701893070973,0.10039947716826005
1.1300000000000001,-1.320328877980347e-06,0.0005211657559912894,-0.007177923680224751,-48.26047265919558,52.32501455447765,4.845044805422195,-1659015.6298576023,5099204.937958578,3605045.9249941353,-188.06124879093122,-5260.953427954359,7341.993949739318,0.9949489597991719,-3.357329755076324e-05,0.0003145080323453769,0.10038160863463551
1.135,-7.472821594615473e-06,0.0005315019500202668,-0.007154391831348219,-48.24953628342565,52.293150790632446,4.844513570024413,-1659016.5694031492,5099178.633185753,3605082.6354293847,-187.75696991869577,-5260.95570176037,7342.180150084194,0.9949507605570588,-3.371301412393732e-05,0.0003158034318031556,0.10036375440643615
1.1400000000000001,1.169346827921537e-05,0.0005348836846105931,-0.007179741451942822,-48.23860886384316,52.26369094465126,4.8272187514007525,-1659017.5074275795,5099152.328401663,3605119.346795354,-187.45280219377383,-5260.957934217023,7342.3662375053855,0.9949525550808402,-3.387060912404004e-05,0.00031712299943445287,0.10034595868241361
1.145,1.5777201576126947e-05,0.000561846867242045,-0.007190057940300779,-48.228747464218245,52.24374808640683,4.833633089069526,-1659018.4439313842,5099126.023606336,3605156.0590913845,-187.14871971338977,-5260.960196858577,7342.552174849686,0.9949543556417018,-3.398139869635837e-05,0.00031845578462987034,0.10032809985634125
1.1500000000000001,-9.033379314389471e-07,0.0005248605224689239,-0.007160535353256889,-48.211202734947356,52.21588162497478,4.837480386676444,-1659019.3789150112,5099099.718799803,3605192.7723169876,-186.84473105993683,-5260.962415924452,7342.738066234481,0.9949561584461409,-3.408880156261806e-05,0.0003198566609685258,0.10031021533108063
1.155,-1.0066926890971837e-05,0.0005394369566049524,-0.007163909103314583,-48.206917295702226,52.200181108724095,4.8338536350998345,-1659020.3123790429,5099073.413982266,3605229.4864718495,-186.5408816526043,-5260.964599037531,7342.923878669935,0.9949579535531942,-3.422839655366398e-05,0.00032116135716957976,0.10029240422404657
1.16,6.702126305672046e-06,0.0005393627447671858,-0.0071772038789349735,-48.18846287556718,52.16298017403801,4.83174884046784,-1659021.2443239484,5099047.109153827,3605266.2015556204,-186.2370805143451,-5260.966776469267,7343.109629646463,0.9949597491729094,-3.4394442470806376e-05,0.0003225000127301816,0.10027458469894186
1.165,1.0692691919454207e-05,0.0005516413523517206,-0.007168651728809009,-48.185561623344036,52.13395252201077,4.829313784563141,-1659022.174750229,5099020.804314582,3605302.9175678142,-185.93343177183604,-5260.968921831319,7343.295247789138,0.994961547805401,-3.451876915937025e-05,0.00032384268622353955,0.10025673205850069
1.17,-3.1371109259477665e-06,0.000520541650590775,-0.007159217533726424,-48.1692961953462,52.10811137456968,4.83032548009573,-1659023.1036584347,5098994.499464719,3605339.634507815,-185.62985055506337,-5260.9710233521855,7343.480752557503,0.9949633439629703,-3.4636240297248156e-05,0.00032521690240886077,0.10023890065399449
1.175,-6.357276289270245e-06,0.0005180841410966321,-0.0071659632454741514,-48.15808558040443,52.07981052944485,4.826165007064912,-1659024.03104905,5098968.194604405,3605376.3523751404,-185.3263955194833,-5260.973102096765,7343.666177557119,0.9949651374595082,-3.478031062098356e-05,0.0003265102959374618,0.10022109269778812
1.18,7.278852724771813e-07,0.0005267163081612554,-0.007164932015079292,-48.141646966356575,52.063829083086254,4.818440298835847,-1659024.9569226431,5098941.889733744,3605413.0711693196,-185.02304172985433,-5260.975162476627,7343.851494115092,0.9949669323272239,-3.493178058482651e-05,0.00032779676911236824,0.10020326793274989
1.185,2.9867658756691805e-06,0.0005501959894309408,-0.007165535661099649,-48.131549909712376,52.033157210757956,4.816668955869782,-1659025.8812797123,5098915.584852694,3605449.790889921,-184.71978595022597,-5260.97725755219,7344.036746615044,0.9949687266091727,-3.506778836703254e-05,0.0003291064889643967,0.10018544569392604
1.19,1.1400762432685382e-05,0.0005262343405619962,-0.007152851633301461,-48.11540811160182,52.017487813623916,4.806000235921099,-1659026.8041207616,5098889.279961256,3605486.5115365046,-184.4166337386,-5260.9793171057445,7344.221886807795,0.9949705207021246,-3.520405865152273e-05,0.00033047517829613566,0.10016762191733392
1.195,7.175179271931246e-06,0.0005180105719941828,-0.0071255822015101195,-48.104533847621276,51.98531440378861,4.809584354030773,-1659027.7254462806,5098862.975059407,3605523.2331086113,-184.11357387347545,-5260.981423017068,7344.406955748057,0.9949723113187618,-3.5313388795482095e-05,0.0003317863728271732,0.10014982965421443
1.2,-1.692450317284508e-06,0.00052869099700094,-0.007148116020124045,-48.09218369751201,51.95849843588558,4.811891795750018,-1659028.6452567917,5098836.670147173,3605559.9556058054,-183.81063061491977,-5260.983470405683,7344.59192188035,0.994974094795627,-3.54311481321253e-05,0.0003330760556257618,0.10013210519407609
1.205,2.569396002184082e-06,0.0005373347602431142,-0.007120818508292194,-48.08245445483627,51.92554079745421,4.812959172865167,-1659029.5635528667,5098810.365224798,3605596.679027621,-183.50779930000505,-5260.9854796106665,7344.776804566619,0.9949758835852642,-3.557365750902573e-05,0.00033439008335120897,0.10011432465691353
1.21,-2.1835970333738195e-05,0.0005377727853468491,-0.007148010048039522,-48.06266462317715,51.91041940861309,4.807263131235252,-1659030.4803350589,5098784.060292508,3605633.403373566,-183.20507760607865,-5260.987436060358,7344.961573254628,0.9949776652175759,-3.570770638003233e-05,0.0003357266809169519,0.10009661198430718
1.215,1.762602064386564e-05,0.0005142100985604031,-0.007132091072832881,-48.05981310914398,51.87545553396042,4.79516588996473,-1659031.3956039278,5098757.755350349,3605670.1286432236,-182.90246997137262,-5260.989427938457,7345.146289741861,0.9949794533334677,-3.590259466003712e-05,0.00033705825827469194,0.10007883166268451
1.22,-5.467119502563031e-06,0.0005267683885147197,-0.007123713329937125,-48.052092487112056,51.85111514112068,4.8016755575485774,-1659032.309359922,5098731.450398278,3605706.854836052,-182.59992777394078,-5260.99140025836,7345.330841583354,0.994981237171124,-3.5993414523552906e-05,0.0003383410992551221,0.10006109087549617
1.225,-1.2398680938188989e-05,0.0005320921477749251,-0.007155190311639506,-48.02920152389264,51.83105171905466,4.797178443377139,-1659033.2216034357,5098705.145436493,3605743.5819514757,-182.29747768180636,-5260.993314026644,7345.515327964442,0.9949830185827284,-3.6144811882601246e-05,0.0003396494022266003,0.10004337091401035
1.23,1.307654901438181e-05,0.0005165185951196391,-0.007104678621783136,-48.010576904851476,51.8009215903167,4.796992817618887,-1659034.132335045,5098678.8404650735,3605780.3099891655,-181.99516594861785,-5260.995253491761,7345.6997479484735,0.9949848075431238,-3.631480943977822e-05,0.00034096921122817167,0.10002557262822684
1.235,7.799614640169738e-06,0.0005306278895461858,-0.007108460976650846,-47.99874320201328,51.76842239473924,4.790609263103438,-1659035.0415554524,5098652.535484015,3605817.038948708,-181.6929970374687,-5260.997169826296,7345.884069215849,0.9949865835701093,-3.6417500877291256e-05,0.0003422566565220612,0.10000789993609858
1.24,1.5645955679960923e-06,0.0005064334711402375,-0.007115388159025767,-47.98323263608828,51.742151800577886,4.791651304857265,-1659035.9492652868,5098626.230493421,3605853.768829529,-181.39093672409896,-5260.999068040441,7346.068259158444,0.9949883602144362,-3.653684933910559e-05,0.0003435778784218039,0.09999021780698154
1.245,-1.8244165618065693e-05,0.0005481419876886963,-0.0071215901506753556,-47.97861026085525,51.71384071887086,4.786410141759233,-1659036.8554651283,5098599.925493399,3605890.4996310943,-181.08899987322192,-5261.000940700938,7346.252366875447,0.9949901382943908,-3.666566515501639e-05,0.0003448373580655842,0.09997251842248821
1.25,4.567995796743612e-06,0.000541976619884902,-0.007123238022928184,-47.96794928729711,51.69042973457623,4.778485896857336,-1659037.760155461,5098573.620484083,3605927.2313529053,-180.78713320140676,-5261.002785632055,7346.436357529662,0.994991917569793,-3.6854184374537186e-05,0.00034619563510831976,0.09995480359211141
1.2550000000000001,-1.0800972898716294e-06,0.0005299606020541101,-0.007097913513945445,-47.94183588291269,51.66418120655693,4.780334242805281,-1659038.6633366728,5098547.315465527,3605963.9639944206,-180.48535158398516,-5261.004637011158,7346.620248511205,0.9949936969470994,-3.69844195726802e-05,0.00034754427612376413,0.09993708461163318
1.26,3.672118737959095e-06,0.0005224132910236691,-0.0071134494554893546,-47.93441378280771,51.63488654223943,4.775137490009452,-1659039.5650094068,5098521.010437731,3606000.697555213,-180.18374200083528,-5261.006481393419,7346.80406833789,0.9949954696909722,-3.712568018366955e-05,0.0003488616185803924,0.09991942859973055
1.2650000000000001,1.5139286872432242e-06,0.0005385772925908824,-0.007101670112471103,-47.928960784448634,51.61446451829091,4.769399037834791,-1659040.4651743043,5098494.705400773,3606037.4320348073,-179.88221695497688,-5261.008301284613,7346.9877695123305,0.9949972460070146,-3.72532479415514e-05,0.00035016137273044203,0.09990173390720089
1.27,3.9683923662716107e-07,0.0005182552421386653,-0.007102766905693503,-47.91257451267997,51.58242362046968,4.775377898757177,-1659041.3638317243,5098468.400354733,3606074.1674326933,-179.58075101497045,-5261.010115201657,7347.171384957309,0.994999019050859,-3.739021088828879e-05,0.0003515007966916511,0.09988406848437167
1.2750000000000001,5.759673628069754e-06,0.0005142355002921662,-0.00708329658639824,-47.901531565227,51.553293639921534,4.772613804566388,-1659042.2609821744,5098442.095299763,3606110.903748429,-179.27942910521557,-5261.011872593322,7347.3549092192015,0.9950007920709174,-3.752487892154117e-05,0.00035278939043964475,0.09986640030448943
1.28,-1.3117270716198492e-05,0.0005147805081359011,-0.007083585470565421,-47.889468443767655,51.52720469845773,4.762160252601437,-1659043.156626274,5098415.790236073,3606147.640981515,-178.9782107873724,-5261.013603690325,7347.538325261704,0.995002559919417,-3.764518611655327e-05,0.00035406932570429154,0.09984878052114335
1.285,5.024223676518052e-06,0.0005197499982187907,-0.0070981660355419335,-47.87454222351311,51.50144982871179,4.76041997353572,-1659044.0507645144,5098389.485163693,3606184.3791313902,-178.6770852957146,-5261.015347845032,7347.721624745477,0.9950043275240953,-3.7812586121232335e-05,0.00035534590444094566,0.09983116000437686
1.29,4.066387570094934e-06,0.0005479428960803174,-0.0070930305172988446,-47.85306647079516,51.46693557219239,4.769286161952616,-1659044.943397418,5098363.18008263,3606221.118197541,-178.37607605684755,-5261.017077358465,7347.904835730539,0.9950060984507123,-3.7936112178087095e-05,0.000356639371063444,0.09981350317017193
1.295,6.746092519765157e-06,0.000508953587064457,-0.007080277444050811,-47.83914418165991,51.44743148945414,4.759940014178902,-1659045.8345257123,5098336.8749930775,3606257.858179525,-178.07524178963365,-5261.018743674041,7348.08795769815,0.9950078677557423,-3.8069051355874154e-05,0.00035800272931093294,0.09979585907724063
1.3,1.2812410997075571e-05,0.0005257995128389694,-0.0070792852161884095,-47.830910704108426,51.41894180985854,4.757590485504804,-1659046.7241500628,5098310.569895125,3606294.5990769053,-177.77449832015395,-5261.020437590389,7348.270994497752,0.9950096336001116,-3.818558585979638e-05,0.00035926977054475285,0.09977824667764398
1.305,-9.09663773688979e-06,0.000543837146011477,-0.007112490376459253,-47.82329625251655,51.392381962591934,4.756303509937491,-1659047.6122709215,5098284.264788782,3606331.340889203,-177.4738451657721,-5261.0220992524255,7348.453924474002,0.9950113988690494,-3.829123148952382e-05,0.0003605802296227784,0.09976063670775656
1.31,-1.0694792184030688e-06,0.0005323978424633357,-0.007077461599742939,-47.80397070198902,51.35563013352834,4.7519646877406405,-1659048.498888728,5098257.959674215,3606368.083615909,-177.1732774574225,-5261.023727616529,7348.636757940334,0.9950131720861403,-3.845590503743624e-05,0.0003619300903829255,0.09974294412553689
1.315,1.0616565370286211e-05,0.0005011327441400799,-0.007078656294918546,-47.78558447680345,51.32380011066411,4.744514843658615,-1659049.384004077,5098231.654551558,3606404.82725644,-176.87286210503856,-5261.025335260037,7348.819454600884,0.9950149362648192,-3.8597726582572825e-05,0.000363253500382992,0.0997253386408278
1.32,1.550189959122828e-06,0.0005318713286779697,-0.007065021637775579,-47.775284631954364,51.29765123918994,4.751382116075221,-1659050.2676176874,5098205.34942086,3606441.571810139,-176.57258204856095,-5261.026943796133,7349.002024928047,0.9950167004576521,-3.870268492193072e-05,0.0003645020505407797,0.09970773014528181
1.325,2.85930262325776e-05,0.0004990919743016723,-0.007066477262403511,-47.75661337824394,51.27814109522484,4.73839919588303,-1659051.1497301653,5098179.044282268,3606478.3172765146,-176.27240919289855,-5261.028493342561,7349.184525387052,0.9950184609102237,-3.8837845998073e-05,0.0003658248054463935,0.09969015554047042
1.33,4.947192743258663e-06,0.0005095005027322542,-0.007055489581749842,-47.74521521503364,51.24577892482813,4.736387559668235,-1659052.0303420476,5098152.739135798,3606515.063655164,-175.97234372839003,-5261.030094472661,7349.36693429844,0.9950202214460458,-3.889756864263143e-05,0.0003670727597004551,0.09967257726190364
1.335,-1.4650656986782196e-05,0.0005161843022213404,-0.007049502225198415,-47.73946315295618,51.21087741379063,4.738556279031385,-1659052.9094538821,5098126.433981413,3606551.81094556,-175.67239009930955,-5261.031659518277,7349.54922415293,0.9950219789204487,-3.901869501013269e-05,0.0003683407145457791,0.09965502630521755
1.34,-2.7747690852463825e-06,0.0004979823764714965,-0.007080408726098831,-47.71950224345564,51.19124535044631,4.742985397233528,-1659053.7870661896,5098100.128819378,3606588.5591470995,-175.3725328557418,-5261.033154618679,7349.731391668518,0.99502373458416,-3.919023176556786e-05,0.0003696204136179507,0.09963749022866185
1.345,6.476418909915169e-06,0.0005247536466963295,-0.00707835928152718,-47.70322926016869,51.154244235359634,4.724753160532375,-1659054.66317955,5098073.823649904,3606625.3082593707,-175.07281133121063,-5261.034635039458,7349.913516834877,0.9950254976524605,-3.9327721106562495e-05,0.0003708577893849607,0.09961987722991737
1.35,-2.8902532545981642e-06,0.0005082042470761465,-0.007066679075098864,-47.69110162975216,51.12788064118477,4.730731208066419,-1659055.5377946058,5098047.518472959,3606662.05828182,-174.77321096775688,-5261.036142625285,7350.095462709639,0.9950272598731313,-3.9448862991831214e-05,0.000372164064483422,0.0996022692867202
1.355,-2.3377165643413804e-05,0.0005333758213951778,-0.007064122689954589,-47.67515694588485,51.09443207161356,4.725784958263745,-1659056.4109119463,5098021.213288608,3606698.8092138185,-174.47372521908025,-5261.0375979178525,7350.277336835741,0.9950290188871052,-3.9589173338268716e-05,0.00037342684050294323,0.09958469037787487
1.36,5.180728272208899e-06,0.0005270657852764533,-0.007038745781064982,-47.65683061726869,51.07714615038361,4.723438294018166,-1659057.282532184,5097994.908097025,3606735.561054868,-174.1743698408363,-5261.039035480652,7350.459082967694,0.9950307769269721,-3.9786710725150426e-05,0.00037474713231851013,0.09956711781361822
1.365,-3.711755504184669e-06,0.0005147281146709254,-0.007041638053251912,-47.64274209284784,51.04545704520152,4.713673480516875,-1659058.1526559333,5097968.602898219,3606772.3138045156,-173.87512993826925,-5261.040487105942,7350.640775989884,0.995032528347853,-3.991161368609036e-05,0.00037605883840873455,0.0995496083191302
1.37,-1.964624699856492e-06,0.0005138237723839074,-0.007027704669037796,-47.63248684771291,51.01143944857143,4.7199850050687235,-1659059.021283765,5097942.29769215,3606809.0674622883,-173.576002714381,-5261.041940174594,7350.822333141876,0.9950342801893315,-4.005556960460858e-05,0.00037733764002610665,0.0995320916084642
1.375,-1.3291123309384939e-05,0.0005149672100688073,-0.007044273708408328,-47.6161931090572,50.977041498344704,4.722517302120568,-1659059.8884162612,5097915.992479004,3606845.8220275883,-173.2769957598309,-5261.043318158314,7351.003786765982,0.9950360282553904,-4.019494120139349e-05,0.00037861462803143875,0.099514609525779
1.3800000000000001,-4.356157428282417e-06,0.000537412727900843,-0.007059694533670936,-47.6039679345861,50.953299699026886,4.709932961879203,-1659060.7540540805,5097889.68725909,3606882.577499879,-172.97813198924263,-5261.044647396116,7351.185129670864,0.9950377801318645,-4.036278862623753e-05,0.00037989164077803424,0.09949708620576679
1.385,1.4415920781126494e-05,0.0005100762759755219,-0.007028358343763854,-47.585431049949925,50.93048977198327,4.709645792429001,-1659061.618197797,5097863.382032462,3606919.3338786024,-172.67935466480893,-5261.046003678897,7351.36635955374,0.9950395355127444,-4.0514007271588115e-05,0.0003812267097030935,0.09947952448314692
1.3900000000000001,-4.047918723396772e-06,0.0005375226949284476,-0.007030011081162368,-47.56841157742514,50.88784645911216,4.707765645456687,-1659062.4808479496,5097837.0767990695,3606956.0911633004,-172.38070626586583,-5261.047353573321,7351.547519791091,0.9950412828180203,-4.0611700095776505e-05,0.00038249844815063335,0.0994620406662535
1.395,5.353809801243381e-06,0.0005294934898417676,-0.007020999529227102,-47.55441788500245,50.86563591794185,4.698336477539775,-1659063.3420052486,5097810.771559049,3606992.8493534103,-172.08221336833498,-5261.048654589936,7351.728524048899,0.9950430301971519,-4.076214988623609e-05,0.0003838338709835129,0.09944455272198907
1.4000000000000001,-2.0428178928618423e-06,0.0005181646382651552,-0.007040902081827869,-47.53964740818922,50.832569752581904,4.694283448227865,-1659064.2016703223,5097784.466312469,3607029.6084482996,-171.7838161535085,-5261.049977292589,7351.909431763565,0.9950447750358448,-4.0887207053829726e-05,0.00038515165848095013,0.09942708715587181
1.405,-1.3615612661747043e-05,0.000547889132335196,-0.0069999484998423105,-47.53289982015077,50.804943671024155,4.688934787530526,-1659065.059843724,5097758.161059333,3607066.3684474155,-171.48554441044126,-5261.0512770882715,7352.090214480741,0.9950465245226814,-4.102786732503833e-05,0.00038643942347504304,0.09940957205731718
1.41,6.068897398257579e-06,0.0005279834005380191,-0.007007079981660279,-47.508588456978856,50.779386894030495,4.692333401524129,-1659065.9165259616,5097731.855799752,3607103.1293501616,-171.18735073057832,-5261.052555235879,7352.270884124106,0.9950482634933836,-4.120466393945954e-05,0.0003877982595698568,0.09939215881289358
1.415,1.6775811915941412e-06,0.0005289029549444937,-0.007027661523294527,-47.48426911127508,50.74287946797237,4.68689438860835,-1659066.7717176422,5097705.55053382,3607139.891156092,-170.88932147251967,-5261.053817857016,7352.451487888492,0.9950500039506048,-4.13275536770984e-05,0.00038911246811569177,0.09937472778036568
1.42,3.0976705593520274e-06,0.0005308238640406103,-0.007008365255678702,-47.48158492334643,50.70638767327638,4.695426644939154,-1659067.625419608,5097679.245261589,3607176.653864703,-170.59146489308694,-5261.055074593859,7352.631956566991,0.9950517492117048,-4.146161582247159e-05,0.00039042787095653535,0.09935724552209858
1.425,-7.727200592554456e-06,0.0005453767192907136,-0.007016104904446873,-47.466473459833445,50.680577326013164,4.686681850550591,-1659068.477632525,5097652.939983336,3607213.4174753735,-170.29370178275053,-5261.056226232207,7352.812311622585,0.9950534893699654,-4.15926036050782e-05,0.00039174840692695495,0.09933981123344898
1.43,1.7691747077793553e-05,0.00053202018192533,-0.007001938859036786,-47.44814252695873,50.65753178880547,4.682232506922154,-1659069.3283568958,5097626.634699294,3607250.1819875482,-169.99604663193293,-5261.057390800231,7352.99255827349,0.995055231127383,-4.175414146407473e-05,0.0003931024557933407,0.0993223576697674
1.435,-2.157830221082973e-06,0.0005182209074978066,-0.007020631186102459,-47.43791512583722,50.62852988542724,4.6700730195509905,-1659070.1775932985,5097600.3294094065,3607286.94740075,-169.69851447326997,-5261.058564312717,7353.172722403844,0.9950569690757397,-4.1849115739333826e-05,0.00039442959146063634,0.09930493929181711
1.44,4.39024185217958e-06,0.0005276658872997274,-0.007009975732755744,-47.41455509866337,50.59566421443017,4.672125459291304,-1659071.0253422589,5097574.024113628,3607323.7137144348,-169.40106965198135,-5261.059746851759,7353.352751610326,0.9950587113687913,-4.1990061243958665e-05,0.00039571746948728674,0.09928747440437627
1.445,4.28695715796162e-06,0.0005133418884760098,-0.007008006583656849,-47.39905901233268,50.566204073853534,4.6709319774327955,-1659071.8716044237,5097547.71881201,3607360.4809280154,-169.10379628144113,-5261.060900400329,7353.532680660825,0.9950604507005321,-4.211705132431147e-05,0.00039703046963752016,0.09927003598576056
1.45,1.2456825322110274e-05,0.0005131719925605993,-0.006994051024475038,-47.380238202165316,50.52319233989542,4.674950123644141,-1659072.7163805363,5097521.413504685,3607397.249040987,-168.80664879213253,-5261.062029485812,7353.71250788247,0.99506218925058,-4.224074151372114e-05,0.0003983078111280148,0.0992526024366638
1.455,-1.1612421637209474e-05,0.0005050301138840221,-0.006952539864136433,-47.36755888303607,50.49472437963354,4.664724479782437,-1659073.559671341,5097495.108191889,3607434.0180527456,-168.5096729986272,-5261.063089178042,7353.892195479423,0.9950639240323793,-4.234405181981912e-05,0.0003995867585287572,0.09923520356550435
1.46,-3.1684758605686166e-05,0.0005174304989673427,-0.0069706243430966534,-47.354239079991906,50.47201308642394,4.656066037213943,-1659074.401477516,5097468.802873774,3607470.7879626285,-168.21279703455187,-5261.064156502357,7354.071757682442,0.9950656482173098,-4.250517684055185e-05,0.00040083948468587174,0.09921790795457591
1.465,-1.67417127476841e-06,0.0005227435857957535,-0.006962606396736322,-47.33249569245374,50.44221819364298,4.659171646625961,-1659075.2417995473,5097442.497550284,3607507.558770079,-167.91601545874238,-5261.065239823987,7354.251222715369,0.9950673765704086,-4.271932905393748e-05,0.0004021180779540521,0.09920056734411943
1.47,1.971463944016644e-05,0.0004970260555581228,-0.00698140898464544,-47.32291959872773,50.39986807782917,4.656391351572211,-1659076.0806380706,5097416.19222145,3607544.3304746402,-167.61939386047916,-5261.066293712157,7354.430601579492,0.9950691026293841,-4.2860134455945035e-05,0.00040341733182253043,0.099183246618659
1.475,1.1628713034864305e-05,0.0005206843219907802,-0.006972551653590763,-47.30445723927643,50.37681272972226,4.643017359997244,-1659076.9179937863,5097389.886887497,3607581.1030756864,-167.32289246638817,-5261.067287554143,7354.609816870778,0.9950708330749156,-4.294137357600416e-05,0.00040465791028297443,0.09916587906940318
1.48,1.6120733284298296e-06,0.0005144451263782975,-0.00696215314436375,-47.286748143775135,50.34337631516593,4.656068997255962,-1659077.7538672753,5097363.581548464,3607617.87657254,-167.0265031173353,-5261.0683256755165,7354.788924630842,0.9950725609954305,-4.304858412825498e-05,0.00040595533907772987,0.09914853352963619
1.485,3.997456676368475e-07,0.0005200783504773121,-0.006966552115984345,-47.27348176099574,50.31113887802519,4.651956331684353,-1659078.5882592204,5097337.276204454,3607654.6509647416,-166.73027490617852,-5261.069278479119,7354.9679559570495,0.9950742860401355,-4.3179155804610344e-05,0.00040723476489900733,0.09913121383863681
1.49,5.766855118008187e-06,0.000511147134950706,-0.006987056592175714,-47.25260101890465,50.28213708906572,4.645677998894318,-1659079.4211703169,5097310.970855739,3607691.4262517914,-166.4341636727655,-5261.070207286544,7355.146864066232,0.9950760118658531,-4.3314143907396395e-05,0.00040852790336363466,0.09911388317478838
1.495,5.251964916260936e-07,0.0005156820647061516,-0.006966296716466018,-47.23903014274915,50.24498495411031,4.64039314849194,-1659080.2526012135,5097284.665502362,3607728.2024331074,-166.13819504740155,-5261.0711436273805,7355.325662261134,0.9950777424775893,-4.343358821526623e-05,0.00040980015127479406,0.099096501467327
1.5,5.802421439760722e-06,0.0005207627750582792,-0.006977535266866702,-47.22264285106626,50.22385418615549,4.633680796525667,-1659081.0825525813,5097258.360144378,3607764.9795080484,-165.8423520355233,-5261.072049910069,7355.504314253105,0.9950794676366772,-4.356717437511423e-05,0.00041108238425888015,0.09907917137865911
1.5050000000000001,1.1406367558969215e-05,0.0004886610575154245,-0.006959487240975023,-47.199507591283805,50.181680910875535,4.642073797654061,-1659081.9110250035,5097232.054781817,3607801.757476043,-165.5466168324398,-5261.072974369674,7355.682883422206,0.9950811952709109,-4.368890240750507e-05,0.0004123785623273799,0.09906181329562126
1.51,5.034547814997883e-07,0.0005114009663835254,-0.0069745150520545,-47.18213816665093,50.15694507987709,4.629547753575574,-1659082.7380192373,5097205.749414824,3607838.536336581,-165.25107670417867,-5261.073822812688,7355.861332012443,0.9950829181655814,-4.378872073066923e-05,0.00041359627054531826,0.09904450007821682
1.5150000000000001,1.5976844599145902e-05,0.0005224694629569161,-0.006960017006963464,-47.173949879873696,50.10992387669002,4.624223260720189,-1659083.5635360484,5097179.444043502,3607875.3160890806,-164.95564773580094,-5261.074706040098,7356.039667636774,0.9950846444531662,-4.392130849203088e-05,0.0004148678475453334,0.09902714945459931
1.52,-1.2420076060945594e-06,0.0005179981636243579,-0.006934948494483232,-47.15645810146248,50.09818407422641,4.6154785649083365,-1659084.3875760122,5097153.138667923,3607912.096732781,-164.66033772213103,-5261.075525613829,7356.217812411043,0.9950863668381557,-4.401812807569516e-05,0.0004161707919523792,0.09900983485046339
1.5250000000000001,1.6020789001369623e-05,0.0005238167052132218,-0.006946503901151379,-47.13466704149089,50.06009423916714,4.622851257020932,-1659085.210139659,5097126.833288121,3607948.878267081,-164.36512109028746,-5261.076395198028,7356.395907722243,0.9950880827189542,-4.4156650420265724e-05,0.00041745835358004176,0.09899258259803577
1.53,-3.0422158614569227e-06,0.000528813739392414,-0.006931111825743759,-47.11834962259388,50.02880530362685,4.612976173888434,-1659086.0312276739,5097100.527904134,3607985.6606915877,-164.07008483265108,-5261.07719937692,7356.57389501288,0.9950898011540398,-4.425367978438359e-05,0.00041876466093121993,0.09897530155035776
1.5350000000000001,-1.006748522658961e-05,0.0005164093354770912,-0.006931498239976213,-47.09214363306194,49.995899037391936,4.608853098406451,-1659086.8508408112,5097074.222516109,3608022.4440056984,-163.775170086345,-5261.078010581094,7356.7517492477755,0.995091515472031,-4.439935298267022e-05,0.00042007868418628033,0.09895805878337229
1.54,1.9234319192932596e-05,0.0005041582998924292,-0.006916558950560708,-47.08463323133194,49.96211211527363,4.612299008028781,-1659087.6689798152,5097047.917124026,3608059.2282087915,-163.48043151097625,-5261.078822603408,7356.929487957105,0.9950932295973725,-4.4559434748882156e-05,0.00042136011046132294,0.0989408150339648
1.545,-6.35442073658448e-06,0.00048313207488254596,-0.0069315627559225846,-47.06872764547714,49.93551374937802,4.610281812967867,-1659088.485645385,5097021.611728056,3608096.013300295,-163.18579642584425,-5261.079565427687,7357.107113492189,0.9950949397438298,-4.4643575378019094e-05,0.00042261830882825457,0.09892360839021215
1.55,6.822067808655693e-06,0.000506302986828235,-0.0069428777763713345,-47.04593979523865,49.90371077664919,4.606452412291156,-1659089.3008380828,5096995.3063284075,3608132.7992796954,-162.89128268180852,-5261.080294235648,7357.284646608147,0.9950966533205333,-4.478618993484024e-05,0.00042381786934185864,0.09890636442052249
1.555,1.4044520180148946e-05,0.0005275465581530547,-0.006938948334711711,-47.02716370350935,49.86123790251321,4.595054231225731,-1659090.11455861,5096969.0009251265,3608169.5861464785,-162.5969281266434,-5261.081018288251,7357.462066665385,0.9950983693711504,-4.490176614440576e-05,0.0004250783297992156,0.09888909225552926
1.56,2.7160178433342443e-05,0.0004990156897888075,-0.0069378466300194655,-47.018694050438334,49.837021176369994,4.60399969323136,-1659090.9268077402,5096942.695518244,3608206.3738999097,-162.30272405835947,-5261.081734617182,7357.639305897615,0.9951000841272662,-4.50046224318337e-05,0.0004263934247313257,0.09887182982598765
1.565,-1.4716104544024983e-05,0.000493678613660543,-0.006917121974858478,-46.994602918878954,49.79422437678237,4.592403275919266,-1659091.7375860948,5096916.390107947,3608243.1625393922,-162.00861777554817,-5261.082384023758,7357.816487018958,0.9951017983419004,-4.5067796801770256e-05,0.0004276407839074485,0.09885457009652893
1.57,7.191966995256548e-06,0.0005218046510372299,-0.006904326380090877,-46.977750335427494,49.76861875082595,4.5827454933569,-1659092.5468943547,5096890.084694396,3608279.952064334,-161.71468615502502,-5261.083036556776,7357.993489753324,0.9951035071357005,-4.5233807926691794e-05,0.00042886451879967156,0.09883736194049278
1.575,9.269378933576195e-06,0.000499303881736913,-0.006925789993068275,-46.962228296345316,49.72877122888535,4.58469416933517,-1659093.3547332413,5096863.7792775305,3608316.742474017,-161.4208684911159,-5261.083709412895,7358.170383443205,0.9951052124414831,-4.535225308037339e-05,0.000430163639146251,0.09882018556047885
1.58,7.580123903956431e-06,0.0005209175535788663,-0.006895986874503666,-46.938238102029175,49.69351608081854,4.58715068740319,-1659094.1611034104,5096837.473857454,3608353.5337678296,-161.12719910874165,-5261.08432126984,7358.347141595393,0.9951069227752715,-4.545999436847523e-05,0.00043140729357356024,0.0988029557547043
1.585,8.115258427714108e-06,0.0005018862162118042,-0.006908077261745575,-46.91384131779555,49.66528972071943,4.584934966603366,-1659094.9660056795,5096811.168434406,3608390.3259451617,-160.83370850639696,-5261.084898022298,7358.523791180427,0.9951086254253038,-4.557724470982344e-05,0.0004327043037862285,0.09878580006186538
1.59,-6.806898083082013e-06,0.0005113495465982886,-0.006903544045243022,-46.89523788825327,49.63026873771345,4.586283011323093,-1659095.7694409005,5096784.863008473,3608427.1190055097,-160.54037996112567,-5261.085475045104,7358.700347998607,0.9951103307839717,-4.568847675926259e-05,0.00043395409903105415,0.09876861426292069
1.595,-3.417948442954592e-06,0.00047435866186489164,-0.006890247015662786,-46.89015932696397,49.6017479989316,4.581020435994355,-1659096.5714098609,5096758.557579759,3608463.9129483537,-160.24720413335857,-5261.086010840183,7358.876789687339,0.9951120347131165,-4.583916355731187e-05,0.000435223752706403,0.09875143972711242
1.6,1.591890628050151e-05,0.0004965740874483527,-0.006878782019680646,-46.870441206791874,49.5658987501141,4.56911197635299,-1659097.3719131215,5096732.2521484345,3608500.707773111,-159.95410018622118,-5261.086518821128,7359.053113176955,0.995113735102791,-4.597227265446921e-05,0.0004364022192482249,0.0987342982424328
1.605,6.139299992801172e-09,0.0005189942778591488,-0.006891446271284078,-46.84712751150876,49.53378346115776,4.573450919225078,-1659098.1709512179,5096705.946714542,3608537.503479099,-159.66113836204678,-5261.087038182346,7359.229281942327,0.9951154323442313,-4.606274686638874e-05,0.00043764072719258137,0.09871718522714727
1.61,1.8366351634120218e-05,0.0005228353245498938,-0.006887338474932217,-46.84031655785977,49.50044818163919,4.569890091699392,-1659098.9685249364,5096679.641278144,3608574.3000657023,-159.36834903450037,-5261.087520781901,7359.405359523544,0.9951171323883192,-4.6198355665751076e-05,0.00043893108308296243,0.09870004069130237
1.615,-8.387542052051424e-06,0.0005001031584664403,-0.00689042987764894,-46.81620093545214,49.467058394889214,4.559702495997441,-1659099.7646349343,5096653.335839439,3608611.097532365,-159.07565010507918,-5261.087961261496,7359.581305483187,0.9951188311198249,-4.628923131777001e-05,0.0004402355254295057,0.09868290632476627
1.62,-4.977647774537717e-06,0.0005157416970344603,-0.006853206450427135,-46.79339210436405,49.43564602909116,4.558424769776812,-1659100.5592818367,5096627.030398484,3608647.8958784165,-158.78311088191353,-5261.088420890397,7359.75711511668,0.9951205303391392,-4.644106042636022e-05,0.0004414768138906904,0.09866576427009185
1.625,4.140636206506733e-06,0.00048661772661251165,-0.006868180074380533,-46.78331541337821,49.39283978295693,4.56040968557097,-1659101.3524664475,5096600.724955265,3608684.695103255,-158.49073339767392,-5261.088866491045,7359.932820282036,0.9951222200645902,-4.658822276935616e-05,0.00044275785321915077,0.09864871478505062
1.6300000000000001,-4.787163695663267e-06,0.000517982920263008,-0.006869670683895165,-46.756322308582014,49.37042608595845,4.551254801916101,-1659102.1441894933,5096574.419510017,3608721.495206239,-158.1984849178457,-5261.089232910367,7360.108373424304,0.9951239132218513,-4.6705534549680176e-05,0.0004439686846649111,0.098631628012668
1.635,1.4354333586889625e-05,0.0004894444657189758,-0.006862717188886262,-46.747091452824144,49.331480636510264,4.5429844622726305,-1659102.9344516825,5096548.114062821,3608758.2961867726,-157.9063907951953,-5261.089645573831,7360.283839994972,0.9951256064157891,-4.685279263883546e-05,0.00044525534503201,0.09861453750893828
1.6400000000000001,-6.237365228292558e-06,0.0005098973104023745,-0.006875532591236408,-46.71934979644616,49.297723992471944,4.547126103327048,-1659103.723253664,5096521.80861364,3608795.098044225,-157.6144018188491,-5261.090026637004,7360.459140875478,0.995127297634649,-4.694538672244445e-05,0.00044647572678922944,0.09859746425703278
1.645,8.842958231954098e-06,0.0004981472336531287,-0.0068749549454487835,-46.70811344334256,49.27217861436958,4.540806480761923,-1659104.5105961883,5096495.503162632,3608831.9007779444,-157.3226078323909,-5261.090376907773,7360.634346858762,0.9951289916921554,-4.709426499709322e-05,0.00044774191414694774,0.09858035911408836
1.6500000000000001,1.0696646417507548e-05,0.0005113307928111615,-0.0068459208797870316,-46.68611393778547,49.21368733557387,4.536986406171835,-1659105.2964799744,5096469.197709882,3608868.704387433,-157.03090663378453,-5261.0907228615,7360.809448687153,0.9951306853266559,-4.72027296265105e-05,0.00044898258589387455,0.09856325536344702
1.655,-1.247746260663565e-06,0.0005196964501649132,-0.006840397649295163,-46.66723513480156,49.19770175612536,4.532567390273727,-1659106.080905762,5096442.8922555735,3608905.5088718752,-156.73940842478072,-5261.091000677474,7360.984328158508,0.9951323714980327,-4.7309798533767014e-05,0.000450256516108735,0.09854622381174283
1.6600000000000001,1.643316624138679e-05,0.0005049603547700971,-0.006835063031242638,-46.64438522311031,49.16157388577167,4.5266155987722145,-1659106.86387434,5096416.586799811,3608942.3142305803,-156.44802273164004,-5261.091304246472,7361.159153806477,0.9951340560049374,-4.744863784930875e-05,0.00045154831649844114,0.09852920598435175
1.665,5.640524570071092e-06,0.0004905315887042523,-0.006843920972205137,-46.62618159844848,49.12830325800737,4.528881408220054,-1659107.6453864,5096390.281342547,3608979.1204630714,-156.15680126524072,-5261.091601285768,7361.333842675582,0.9951357389241076,-4.7539854093937454e-05,0.000452807811627984,0.09851220138144587
1.67,-2.4871226511578077e-06,0.0004805380825568386,-0.0068433673960917145,-46.604861951271296,49.09261634548812,4.523851159265263,-1659108.4254427245,5096363.975883902,3609015.927568742,-155.86572861599635,-5261.091856501571,7361.508425583346,0.99513742374738,-4.76543771867918e-05,0.00045402875110250185,0.09849517472638387
1.675,3.3143658201896765e-05,0.0004987371040148765,-0.0068379670977526084,-46.59090410236374,49.05922020176539,4.522045945005631,-1659109.2040440803,5096337.6704240125,3609052.735546993,-155.57481369528438,-5261.092099457096,7361.682874813901,0.9951391081519514,-4.778665917173745e-05,0.0004552228268944111,0.0984781494299719
1.68,-5.677121126415942e-06,0.0005107102711473767,-0.006821902147072038,-46.57137306957644,49.01854416008697,4.509975896141485,-1659109.9811911732,5096311.364962995,3609089.544397187,-155.284023482806,-5261.09230771496,7361.857202715399,0.995140790917999,-4.78347715529772e-05,0.0004564709517260125,0.09846113749700657
1.685,1.030230387138853e-06,0.0005027494175860446,-0.0068472952871916175,-46.552948845540705,48.989464589589105,4.5098211455782815,-1659110.756884689,5096285.059500935,3609126.3541185823,-154.99338278552926,-5261.0925162483145,7362.031355522422,0.9951424694195853,-4.798239316896221e-05,0.00045773930996725724,0.09844416554526653
1.69,-3.633691914901503e-05,0.0004695204967997977,-0.006820546558986647,-46.53032679487661,48.956244485000624,4.507278459323864,-1659111.5311253492,5096258.754037888,3609163.164710503,-154.7028812828183,-5261.092702580562,7362.205412758834,0.995144153888474,-4.8111397654642065e-05,0.0004589895103184472,0.09842713038342671
1.695,2.2978014320275124e-06,0.0005112933498545834,-0.006806505740348369,-46.50530805012702,48.92113577764605,4.51453156315777,-1659112.3039139076,5096232.448573943,3609199.9761724207,-154.41254214101556,-5261.092875159626,7362.379354334009,0.9951458315170462,-4.8325159115459255e-05,0.00046014784998338386,0.09841016178668673
1.7,1.519264295701795e-05,0.0005086354979017012,-0.006806124587447373,-46.486178891683444,48.88006235040684,4.5046281887196935,-1659113.075251243,5096206.143109266,3609236.788503811,-154.12239202328507,-5261.092995952618,7362.55320182331,0.9951475053575883,-4.845306364027948e-05,0.0004614196215346475,0.09839322804340876
1.705,1.8965029776023185e-05,0.00047785101324360137,-0.006805310493180787,-46.46797453266659,48.85249761649706,4.499948739277077,-1659113.8451382057,5096179.837644009,3609273.601704011,-153.83239304286656,-5261.093106703244,7362.726878258246,0.9951491788192509,-4.8548233251295825e-05,0.0004626879525235882,0.09837629520518779
1.71,3.205842617542192e-06,0.000498661302319965,-0.006826765431761335,-46.448666774820005,48.810739465479465,4.493910842504612,-1659114.6135754976,5096153.532178202,3609310.415772338,-153.5425237276963,-5261.093216060987,7362.900452409961,0.995150851827163,-4.8626445528513074e-05,0.00046388062337372217,0.09835936436307423
1.715,-1.4798348283705629e-05,0.0004834507949664611,-0.0068122973547313165,-46.43326876498582,48.77409922836325,4.4860396387350345,-1659115.3805638384,5096127.226711915,3609347.2307081283,-153.25281251070902,-5261.093298925803,7363.073863649677,0.9951525297943188,-4.87490068111906e-05,0.0004651211897634459,0.09834238013074885
1.72,2.0723249642149822e-05,0.0005212374211668891,-0.006813939957471489,-46.4007788500786,48.74249114376168,4.489410570069315,-1659116.1461039456,5096100.921245252,3609384.0465105986,-152.9632303765178,-5261.093366358046,7363.247124513389,0.9951542039291496,-4.8912603952664845e-05,0.000466319489405893,0.09832543188733835
1.725,1.289623501761747e-05,0.0004956849767505585,-0.006798243118244631,-46.39652360540162,48.71570440532942,4.484335747784383,-1659116.9101966703,5096074.615778284,3609420.8631791617,-152.67385958931237,-5261.093420524843,7363.420300674507,0.9951558781377623,-4.899711779190676e-05,0.0004676205292023837,0.0983084794826074
1.73,-1.0650662189999636e-05,0.000508478169191068,-0.006790086982785078,-46.37112432012989,48.67101340398743,4.480308731741874,-1659117.6728427042,5096048.310311113,3609457.6807133267,-152.3845538857312,-5261.093448168278,7363.5933653221055,0.9951575482277307,-4.9094805960608176e-05,0.00046885607546756506,0.09829156611353994
1.735,-9.636509583678415e-06,0.00048007126821756984,-0.006779976788435724,-46.34272331338224,48.64751842577968,4.47722473924418,-1659118.4340426924,5096022.004843875,3609494.499112404,-152.09544141138363,-5261.093447006935,7363.766265652487,0.995159216006939,-4.9254210393463644e-05,0.0004701176645493476,0.09827467303358943
1.74,3.4788421790353575e-06,0.0004915178300902963,-0.006778473770675233,-46.33950668820058,48.598368103146754,4.467830658214465,-1659119.1937975439,5095995.699376586,3609531.3183758003,-151.806499171652,-5261.093468309079,7363.939092868244,0.9951608810478606,-4.940410062407709e-05,0.00047130883043060686,0.09825780508065081
1.745,-6.593312934953862e-06,0.0004887312216563415,-0.006772547317248279,-46.302086925549176,48.568179418135706,4.469027388523198,-1659119.9521079203,5095969.393909349,3609568.1385027943,-151.51765147199393,-5261.0934264415955,7364.111704640667,0.9951625454203916,-4.952417114204029e-05,0.0004725316960021183,0.09824094082183797
1.75,-5.457995595670276e-06,0.0004991236125180196,-0.006781378402729409,-46.29219326492922,48.52902510255713,4.471932694836015,-1659120.708974629,5095943.0884423,3609604.959492644,-151.22903190604183,-5261.093393099134,7364.284235312795,0.995164208052388,-4.966860882584293e-05,0.0004737451556052556,0.09822409129139477
1.7550000000000001,-9.072860908649564e-06,0.0005097791534642802,-0.006766652895785246,-46.27495590982049,48.49230896672093,4.46271585729014,-1659121.464398546,5095916.782975606,3609641.7813448096,-150.940534902657,-5261.093284751392,7364.456630955769,0.9951658725536054,-4.981278434444291e-05,0.00047498474810245245,0.09820721975902154
1.76,1.0749130648204749e-05,0.000502476083092105,-0.006759112447141566,-46.24516189025928,48.44976013133042,4.463132457437411,-1659122.218380317,5095890.47750947,3609678.6040585707,-150.6521735486857,-5261.093169750491,7364.628873521547,0.9951675331393491,-4.9968551966816946e-05,0.00047624996485854206,0.09819038483709709
1.7650000000000001,7.92358872721425e-06,0.0004893734072692684,-0.006761629553856523,-46.23117924455612,48.41947473401035,4.450469799480774,-1659122.9709208184,5095864.172043989,3609715.4276331956,-150.36402699547074,-5261.093022259252,7364.8009763607915,0.995169191599199,-5.0073202362569396e-05,0.00047750187879583576,0.0981735686242832
1.77,3.939647992001961e-06,0.0005125596649053243,-0.0067444278600395586,-46.20780819418574,48.39659441660023,4.452191823403719,-1659123.7220208498,5095837.866579209,3609752.2520679864,-150.07598558703182,-5261.092889828073,7364.972939970949,0.995170850406328,-5.018166963839105e-05,0.00047872050034879557,0.09815674612592153
1.7750000000000001,-8.399282173978524e-06,0.0005076225874751134,-0.006749688931948468,-46.18186907388667,48.34578459295512,4.450901226830695,-1659124.4716810558,5095811.561115105,3609789.077362442,-149.78809683292033,-5261.092752002799,7365.144842250724,0.9951725046788448,-5.03057177860606e-05,0.000479995832015254,0.09813996639784879
1.78,-3.1118823770506774e-05,0.0004762239477607493,-0.006762660518235219,-46.16368013232379,48.30751433807657,4.440398940773937,-1659125.219902343,5095785.255651821,3609825.903515956,-149.50041800256176,-5261.092561440565,7365.316563289824,0.9951741599617749,-5.045925933114287e-05,0.00048125585241795045,0.09812317356793612
1.7850000000000001,-1.010461054165066e-05,0.000499745802058755,-0.006758219364869031,-46.1422376759471,48.283546587135106,4.442798341003768,-1659125.9666855882,5095758.950189498,3609862.730527669,-149.2128801431001,-5261.092367569975,7365.48812203481,0.9951758181762289,-5.066163888473857e-05,0.00048243217997522003,0.0981063484687082
1.79,-8.827279388457817e-06,0.000489805275504512,-0.006740777565628682,-46.12308448006681,48.2349474679201,4.435318451035438,-1659126.7120315114,5095732.644728182,3609899.5583970123,-148.9254890362491,-5261.0921592267905,7365.659615311481,0.9951774749899572,-5.081750008337978e-05,0.00048367218297725654,0.09808953436230718
1.795,4.431086543669183e-06,0.0004988740302898208,-0.006735723161106257,-46.10109068595135,48.204946608845205,4.441473673717987,-1659127.4559408976,5095706.339267999,3609936.3871233347,-148.63826544551748,-5261.091913812154,7365.830913521988,0.9951791272538487,-5.096772459515716e-05,0.00048488776981846736,0.0980727636217603
1.8,1.25452021513787e-05,0.0004929179031972297,-0.006730035878139253,-46.085194472209935,48.16976000780241,4.433332163719576,-1659128.1984145776,5095680.033809149,3609973.21670595,-148.3512066104778,-5261.09162626437,7366.002132667387,0.9951807779852603,-5.1087180337363987e-05,0.0004861291704655177,0.09805600541110009
1.805,1.3043163124250876e-05,0.000489123261213314,-0.006738687653901821,-46.061752016349125,48.13242175824269,4.421179812802222,-1659128.939453284,5095653.728351762,3610010.0471442984,-148.06427595883517,-5261.091328494778,7366.173206764057,0.9951824270472784,-5.118498153835444e-05,0.0004873577422368828,0.09803926131309375
1.81,-2.8214603797983174e-05,0.0004952634446512595,-0.0067326054660543635,-46.04752973654469,48.09712295285887,4.426370252248371,-1659129.679057739,5095627.422895824,3610046.87843762,-147.77750605608037,-5261.091046708824,7366.344121917926,0.995184077950935,-5.1280624301262694e-05,0.0004885769939090366,0.0980224956617914
1.815,4.769059823481174e-06,0.00048466364555690435,-0.00672623577489261,-46.015301488839924,48.058332190246475,4.426086111970833,-1659130.4172286897,5095601.1174414605,3610083.710585244,-147.4908741329699,-5261.090698486915,7366.514927491649,0.9951857270676242,-5.1480411992598974e-05,0.0004898014122804416,0.09800574516439357
1.82,-1.682533136663634e-05,0.0004937545006954755,-0.006726667049172331,-46.00071969980502,48.02052650615213,4.41989494584548,-1659131.1539670255,5095574.81198888,3610120.543586584,-147.20446024752388,-5261.0903340647055,7366.6856084542005,0.9951873743577067,-5.159553258840591e-05,0.0004910075408816749,0.09798901044764954
